ts,ax,ay,az,gx,gy,gz
0.0,0.6942354148279335,0.09398512460685535,9.726085177664814,0.0028329786724499845,-0.000802909516347124,0.002023740714541492
0.01,0.6434365777608131,-0.15031847558030617,9.720994064063355,0.0017595453331435424,-0.0025451031281712795,-0.0017768993827363597
0.02,0.7063111227060478,-0.02622360447019705,9.97769871188475,0.0030006358617560925,0.009060439043207006,0.0060340929065465995
0.03,0.7763356245130617,-0.0033328018705067793,10.030379639663199,-0.005645580280587001,-0.005627908696129553,-0.002678156743841317
0.04,0.6357570409085855,0.0012726926719704866,9.69518410499078,0.0004946066893879721,0.0002412812848715968,0.006201401384641744
0.05,0.6357533077669509,0.014439684486246496,9.726370668107235,0.0064755665292338775,2.8327922077548835e-05,-0.0011384828818043703
0.06,0.7808151215590584,0.04883518558475945,9.943752738340496,0.002583732161437997,0.005316006600257553,0.00276218404988774
0.07,0.7158655852158663,-0.002832595123628069,9.870672399177087,-0.0021577290169535425,-0.0030612693085366144,-0.005553018592328623
0.08,0.6169044451560676,-0.029444662571494456,9.887821372638511,0.0009674342379762631,0.003115600491598436,0.0036742259656472854
0.09,0.6978576672615121,-0.03260714757277565,9.914242155382366,0.005758801848774491,0.007401548003309662,-0.006874828238386681
0.1,0.6173687947063371,-0.04892126416306837,9.77776214059071,0.0020238121671566378,0.002196297446903378,-0.00036973204209001203
0.11,0.6171720548334594,0.06300346594614922,9.846246390998822,-0.004141722849721388,0.007223149173683852,-0.002943002555237175
0.12,0.6737745204834058,-0.05172227835812117,9.83691305808377,-0.010962844297164693,0.00010036142555117168,-0.0011893183344287954
0.13,0.5013411014979108,0.06774168872065955,9.703631007970545,0.009288486364067348,0.0024484697709687515,-0.001526313734156161
0.14,0.5163949554792971,0.0015199265807896802,9.844460913185884,-0.0009842754519653707,-0.0010420175391887547,0.011085666872816917
0.15,0.6093891194742845,-0.041700384548490364,9.95517528353796,0.00337741934068922,-0.0070358008613700534,-0.0012221997405049256
0.16,0.5733282506711594,0.04947257725953079,9.766554011338796,-0.00011816224000254283,-0.005537841017321343,-0.008914777286235449
0.17,0.6794760241709019,-0.05819631397784946,9.824958309848911,0.002977816908934223,-0.004023164978689519,0.006243858092799909
0.18,0.5816746875996734,0.05105472325825703,9.831455069921303,4.097216303917149e-05,-0.002371344101308677,-0.012083668250727977
0.19,0.5413115724588896,0.01701808969534279,9.772490253947767,0.00611158924813966,0.0014676341632265091,-0.0022409735940868117
0.2,0.7715259038856928,-0.04770597512735366,9.887878148523322,-0.004451456937901012,0.007995456045156276,-0.00532109850336428
0.21,0.6361889110586949,0.04229078522676473,9.7250421242494,-0.0018432372915132603,0.0028487255102853147,0.0072538332001168705
0.22,0.6596291631569523,0.0437271780550911,9.966567462243512,-0.0010815985351889006,-0.0036740848711627125,-0.0005336960427765921
0.23,0.5402218225691386,0.09260156846479661,9.88179466739587,0.004522353314786681,0.005646974426316013,-0.006875795745226907
0.24,0.6106247092317476,0.07729176099274368,9.694237767919253,0.0005747006018850481,-0.007171327044806995,0.004421085854886362
0.25,0.6630216631866017,0.03930192165810263,10.01041116218635,0.0021119195029157645,-0.004605928154753648,0.00767072785025582
0.26,0.5620397777675216,-0.09020727609670105,9.82682217535139,0.001675067400036937,0.0011259624023331428,-0.0008955574117297977
0.27,0.6841453925648349,0.19588695905392456,9.719896297931793,-4.018967167328358e-05,-0.0019074125071139403,-0.0037060424810812682
0.28,0.6060076222750487,-0.11228929688574482,9.939196542998943,0.006145652938026969,-0.002463712948328411,-0.002632040188658611
0.29,0.6306912631446283,0.07594105394258473,9.866010582333763,-0.0006464704507444126,0.007122572404274041,0.005655829468486565
0.3,0.605857159152198,0.03450270535090388,9.594014835491915,-0.0019742418478374347,0.006133927127793387,0.0005406008521416943
0.31,0.8021417472934447,-0.09393138979848917,9.743570761930737,-0.004217126340040176,-0.002380646740017032,0.006866269346418639
0.32,0.6528443984141267,-0.009944075110279935,9.840141680466585,0.010414226317845566,0.0015990837937660122,-0.002832685808415094
0.33,0.5692708654558133,-0.006300230899571237,9.54750199868288,-0.0006245873383697327,-0.003812220909694603,-0.003083816894616247
0.34,0.71965377570084,0.10444661726484189,9.816858410246487,-0.0035752389889840957,-0.00039671873749328563,0.0006034051822896339
0.35000000000000003,0.5561440133407712,-0.05706487202241692,9.82560752472463,-0.0007408057034089466,-0.0011066146726078539,0.0038024581175284677
0.36,0.6704807952565283,-0.020955600513948316,9.664630974114901,-0.0011460446246272333,-0.0008250790531686725,-0.0008828013551305307
0.37,0.4969571798434549,-0.18688556840170104,9.839127386351196,0.0077164386647563445,-0.0024560731241287347,0.002981480534707674
0.38,0.5474338677897232,0.1387810234498862,9.807545660695004,-0.0037418884696873047,0.0017497241571263133,0.002731165958941687
0.39,0.6693944924409913,-0.0856374594416057,9.663694707293798,0.005421296434013694,-0.0019213408464628242,-0.005569812824125907
0.4,0.7126786418371348,0.026152869139133995,9.916997265623538,-0.003919926616302875,0.004822707865683357,0.010408758062433363
0.41000000000000003,0.6672653798706789,-0.008112626377749116,9.907192455372137,0.004172267060063594,-0.006310697148941759,0.0040032644055641884
0.42,0.6442575368720999,-0.007840077342667194,9.771881549577715,-0.004718955455107707,-0.001745713085656197,0.0009361553843264704
0.43,0.6293734661332397,0.06478895878967,9.782820241192981,0.0017768442773548223,0.00032721047335608337,-0.0030055607352479402
0.44,0.535131245179293,0.13370099682429076,9.89380167251144,0.005299791323371671,-0.0026378320244863,0.006272563726809946
0.45,0.5957755907600287,0.02011949359535934,9.782570422826582,-0.006796899453948334,0.0010776517097221144,-0.00613075481615766
0.46,0.6164610292577528,0.05240624141044207,9.574941015937581,-0.004170413159963184,-0.0025650610446670903,0.007603027273654871
0.47000000000000003,0.7378297931024771,0.026311322938163267,9.865082386887991,0.006540123330511635,0.004371243812785981,0.00016642875108432783
0.48,0.6806962428976286,0.08140251391445011,9.709058881511378,0.0009402947468567154,0.006332395809156781,0.003506526431033992
0.49,0.5121092127783852,-0.03703331035890617,9.759868833469888,9.004211685378301e-05,0.007433357900081401,0.004072647680817573
0.5,0.6790236690753408,0.08603124435331312,9.981594468154176,0.0012120993291950901,-0.002294883901242407,-0.0027462112664650646
0.51,0.6222337763429858,0.08883998925179071,9.790572583118944,-0.001680876776001398,0.002284954428809927,0.004178914079664033
0.52,0.5988288870374737,0.08660296069463279,9.806858192304864,-0.007221459227755181,-0.009732993388256147,-0.0047574490329606615
0.53,0.701857919586903,-0.052811829386918085,9.867810073055631,-0.002038383066876732,0.005979736003280969,-0.0014020908399159401
0.54,0.7353438289298695,-0.01346701073897527,9.867290073264883,0.0012738667448594619,0.002089522559938356,-0.0051178543008550985
0.55,0.7273052086455103,0.019157359102434796,9.696346267914665,0.007299444159391352,-0.003324029429899598,0.007798957279831402
0.56,0.5856032106846907,-0.10966736358632045,9.799414178135875,-0.0006308800073185764,-0.0016875164880655311,-0.005553945918281507
0.5700000000000001,0.6279403174474507,0.12759361664688118,9.810988303351099,0.0009864264559929033,0.011271911970179696,0.0020679414520100143
0.58,0.6791139586561734,-0.000982122680174071,9.839293227595459,0.0013521843597445228,-0.0033330181289457916,0.002959918743058901
0.59,0.7305909527075791,0.022714231008377727,9.841356632909994,0.0007880890356147459,-0.0003141723737073633,0.0024739739216425487
0.6,0.6141467437818966,-0.04616035517817624,10.117142947453294,-0.009079229894099464,-0.0005026224619758909,-0.005985139225593521
0.61,0.6375601869403685,-0.10615020474936182,9.66554682752953,0.00014449249159971693,-0.0036209968781667733,-0.003279199252806019
0.62,0.5638372115251667,-0.04832239083798168,9.924260994423754,-0.006667206413928503,0.0055783248562341035,-0.003388732491339393
0.63,0.556577466117719,0.017536335010687073,9.948655096699966,-0.003121193118168771,0.00765307535586209,0.002839787163832919
0.64,0.7172049307805736,0.05387430502029548,9.865784076870822,-0.01017319619005991,0.006926800858609076,0.008239453208496514
0.65,0.7606298186875906,0.012943323248217613,9.72861215261523,0.007771880441281738,0.003340946215055653,-0.0055085487996550594
0.66,0.6462964406804411,0.02773792129935603,10.006410163632115,-0.00024612753674095974,-0.007242226511915199,-0.004330080277510351
0.67,0.7322653989609061,-0.02696210997451013,9.543612056231176,-0.005554433619813633,-0.003135152275947596,0.0008197694510573146
0.68,0.6808380487012626,0.03969988529963425,9.72465799633386,-0.0022245597458275656,-0.002439308776449891,-0.0014544722236173424
0.6900000000000001,0.6002208688718106,0.11862662931087256,9.947251863666736,0.007497363397759408,0.010818777511754016,-0.00225348089909595
0.7000000000000001,0.6806642633299291,0.056383155395118956,9.762236607589298,0.001680371012484785,-0.004206389812783231,0.0038382565242825392
0.71,0.774716589095285,0.06476335106023522,9.998225742976022,-0.0023822503096387147,-0.003555524315448986,0.010007936329078483
0.72,0.6487275129128591,0.023521311944530485,9.625233430638591,-0.006780346214958028,-0.01226413677343987,0.0036741512307450048
0.73,0.7766839042825436,-0.12025240556796815,9.673197772726239,-0.0018381420547657066,-0.0032299828962696103,0.013658295002203221
0.74,0.4418505029173091,-0.08357332245049946,9.742853419584762,0.0036511328629134786,-0.00029257048752738074,-0.0035396581986384913
0.75,0.7170988948137793,0.03639006405310746,9.856737913304382,0.002228939244158434,-0.008664263145971749,-0.002580507194859007
0.76,0.6582259270772473,-0.0008751241568068675,9.780007581954397,-0.00018549484898897723,0.0010674591584846776,-0.0007121566839705467
0.77,0.6272559248154664,0.03518743091782624,9.74780208969251,-0.0034660562186444818,0.004603310728307691,-0.008258267820995611
0.78,0.6584306104369111,0.1341138734275259,9.977097571731822,-0.0013896193600754702,-0.0025896528116049456,0.005059215500213329
0.79,0.4919963549828086,0.058082879938346696,9.988263397046698,-0.0022944154716468233,0.0021883177838865524,0.0016652339807970624
0.8,0.6333391214867082,0.10071089645942573,9.756924428115093,-0.0091755917105356,-0.00032823692454813063,-0.008713679108873763
0.81,0.6793917672759541,0.007574511157658404,9.60147786312044,0.0017564260922711603,-0.0036516076698858463,0.005933347884246987
0.8200000000000001,0.7689630590086599,-0.06457725419875518,9.547751940497514,-0.0009038404993898086,-0.003850281511021177,0.005999294330974584
0.8300000000000001,0.609177576831065,-0.004629292737147282,9.835364813773642,-0.004359450823541765,0.004473475306738199,0.002337643370090665
0.84,0.5858662500724654,-0.06438014509753102,9.885364674666254,-0.001827158112998023,-0.006679889027568211,0.006208312709086714
0.85,0.6103106041357382,0.12466359654179585,9.814209734269426,0.0025023202867967987,-0.0038597401038008463,0.0012230284229729513
0.86,0.7235876518270463,0.06323128612283757,9.798141027150308,0.005030809493662429,0.0005600939709844362,0.0011919941632654845
0.87,0.6765587716055687,0.04164099973026237,9.71010488623671,0.00516001871902014,0.007686313871515882,-0.0005979958748090036
0.88,0.6077799527527458,0.09887545617824828,9.88524757526966,-0.006687214326642047,-0.00651288156788023,-0.0034549640641994566
0.89,0.6911231358918485,-0.16160451316185803,10.008032245467868,-0.00467445763209492,-0.008412344480503422,0.009239125015657743
0.9,0.6577278035161593,0.047051036107412764,9.540624678719732,0.002640496311381667,-0.0026189879841749565,-0.00016258421195989344
0.91,0.7273519434449444,-0.10485166274434982,9.797349857345473,-0.00893199543751721,0.00578660948954371,-0.009748051957718577
0.92,0.5935937278082664,-0.0005804558772528933,9.690208198070367,0.0025501389082213167,-0.009192110773741503,-0.0020700404755963
0.93,0.6234415213641564,-0.02493660739737716,9.627794080713537,0.006213444361354459,-0.008169760458208846,-0.0007435445010931987
0.9400000000000001,0.6181812454496353,0.05293892896775583,9.67105289550587,0.0031388533786359343,0.002320847501721926,0.00035092999889181387
0.9500000000000001,0.5323629934717651,0.018254983116876435,9.852210742682129,0.0024788175616909914,-0.0030541197780214447,0.009663979276664987
0.96,0.673026990304757,0.10760937388894308,9.85524546371094,-0.008053089264459176,0.005810353721643873,0.0009474726839175811
0.97,0.6701138561093769,-0.04815177287460909,9.981884531340976,0.0030855461568217468,0.003972730087918698,0.0027781430173162147
0.98,0.6495294646248351,0.05672915117066271,9.807703785657456,-0.004055108802794856,-0.0014313484474439075,-0.007257948335294158
0.99,0.630243258931809,0.012977857351906555,9.59566340441565,-0.001492478630057113,0.0016125949740422134,0.003035641376783517
1.0,0.5356692996847938,-0.1308232216057242,9.778069654914884,0.001957171724971308,-0.008775448707150673,-0.002810869662103641
1.01,0.6151349508040089,-0.07348931668184261,9.640284511334105,-0.003311247446837638,-0.006550839666216791,-0.0041796670055188005
1.02,0.6212559212012906,-0.011990242681773464,9.661834493629359,6.395901847547908e-06,0.007068942603892139,-0.004765321646044979
1.03,0.5843762954002809,0.08898339599133821,9.876317087008779,-0.00564432217502849,-0.00299736221822277,0.0016873319354305542
1.04,0.6355399031320679,0.03709784460456916,9.829951708671329,0.006118539451792715,-0.00043254453844984817,-0.007229393729760057
1.05,0.6806500006487626,-0.09340006591045714,9.877157871452239,-0.006165414141400252,0.0009414069432997211,0.004976271973380282
1.06,0.7991028653499783,-0.011225298243772781,9.763750858327391,0.009078709624206413,-0.005912004174513679,0.0006988719064215955
1.07,0.6620551687424769,0.1614245159034424,9.901513547611042,-0.005149225186225997,-0.004493133377923133,-0.004916558661374206
1.08,0.6685728149538169,0.008897866787268642,9.757041652205187,-0.0016713058238726711,-0.004411395429862353,0.012394230284667336
1.09,0.64189184013792,-0.02618604600579166,9.940651939929069,-0.002298378916428361,0.004938890554297463,-0.003297638373173993
1.1,0.49422343580936007,0.03933917126049764,9.848006672736584,0.01116620264934114,0.001695324907094145,0.004184658647640112
1.11,0.6454805327721004,0.0610714463665576,9.781810375541845,-0.002955387548029691,0.00488220302551188,0.0016744451290895898
1.12,0.6522954597303229,-0.036493467798404726,9.83210116530113,-0.0018948877293760225,-0.005399457182148155,-0.001187717554847875
1.1300000000000001,0.8444107026266776,0.04020598194971497,9.80450671588301,-0.001615717393112338,0.00434514138293213,-0.0011612443279883126
1.1400000000000001,0.6318356379192843,-0.02631115973366474,9.998182781837551,-0.009607718516422427,0.0032309002425159063,0.006465832909691458
1.1500000000000001,0.6712203749607365,0.05754620814635507,9.836102514709454,-0.008330337425142203,0.009023653066980272,0.006983259015766756
1.16,0.644190609687591,0.013575452637702698,9.806456479312658,-0.0031544033256648554,-0.005585798034088231,0.005264887284626084
1.17,0.5533431633831237,0.03855742616423138,9.778031097153903,-0.006848245897690338,-0.0033417028910870325,-0.00657564870753143
1.18,0.7381319783443425,-0.060734683693400356,9.907832106309401,2.9539047404530506e-05,0.00732592571686064,0.0018745841717566361
1.19,0.706728434475203,-0.06570291072582875,9.89159960068642,0.005090372493614123,-0.0017590123776734204,0.00048651414680922765
1.2,0.7097228784141536,0.07563978437275158,9.773789004362484,-0.006132188823247651,-0.00048442964269157724,-0.0037298505482827133
1.21,0.5735547493997475,-0.0063517105108395,9.667973018245263,-0.0008013514918813591,-0.0011450603630898473,-0.0015721993900700755
1.22,0.7583936063635702,0.022802779367948924,9.698413823394597,0.010537784999650864,0.008837723263559631,0.007080711907708714
1.23,0.5338851849758308,-0.024511634166921564,9.784550495254935,0.008975294837486287,0.007096513246389336,-0.0001118866705508651
1.24,0.6928439390533759,0.07189814192109152,9.96852130073429,-0.0006245480251959409,0.0011770012526028989,-0.0010534245935770665
1.25,0.8209928164402478,-0.04862479840237262,9.77662880449037,-0.005200226907162259,0.0014830262777350716,-0.007830605417766654
1.26,0.5663733487051646,-0.010848099192070627,9.735355166804132,0.0006882082022817991,-0.004973864425380723,-0.00040519435185350266
1.27,0.6001712184416288,0.06287942501625053,9.595363682410161,0.0009560172126956765,-0.0017642673570140946,-0.008202554314353275
1.28,0.6533048221072708,0.09383741593314128,9.988274972272276,-0.005940094167247585,0.002291218108400251,-0.0027872109692344354
1.29,0.6049112309013113,-0.041900743282134674,9.874933377517774,0.0028042487639219826,4.8506458157842224e-05,-0.0009891594555523871
1.3,0.520991673561362,0.15677471855647063,9.902171196400703,0.0017382179406076387,-0.0033744853594740464,0.002001974590365424
1.31,0.650384145580724,0.025059335495489304,9.922052566231525,-0.0020975354124017943,0.012681427795197178,-0.005669678085680421
1.32,0.5597680650306426,-0.08343426094469901,9.786882372548924,-0.001786243150320216,-0.0015845349847627725,-0.006759327805304349
1.33,0.682491906346378,0.029524163887197443,9.816800876049705,0.0036290629454926305,-0.0021436204054029145,-0.011898891108375671
1.34,0.570901618411521,-0.030639937158676616,9.985282233034239,0.0034756428577266676,-0.0031808439067642796,-0.0005245071145988324
1.35,0.7683002505492045,0.034725478974654146,9.828199706718296,0.0033841128992792924,-0.0018235329251105722,-0.0018644831970329346
1.36,0.5814940717586091,-0.0034284998128270416,9.877153034807678,0.012323509921610822,-0.010768728740674615,-0.0064298274331472255
1.37,0.6182371471058844,0.005941895215211584,9.91111608606406,-0.005460304674627223,0.00894511370454505,-0.0032230665302102448
1.3800000000000001,0.7089300755686794,-0.07292747012689167,9.883801759890718,0.0012010443742283515,-0.0023703910146116187,0.003016001711654438
1.3900000000000001,0.5452250794240392,0.0792048984573088,9.79126969956802,-6.356773855746782e-05,0.0012654959809978593,0.006436231856515903
1.4000000000000001,0.661735443114162,-0.09249018937208257,9.802583938862329,0.0022013482342448255,-0.0036753368872813096,0.0015603352454428754
1.41,0.7479533896095594,-0.08870119163239962,9.899966852557112,0.012093263741739434,0.0028248523450187892,0.0007595482748950107
1.42,0.5146255290057986,0.029388827931798932,9.899770343192166,-0.006852764763803504,0.003622092653324773,0.004361134400908596
1.43,0.6578360128098837,0.12822753977423756,9.946837911882335,0.0015636157339365014,0.0005704705954689898,0.014162698405869674
1.44,0.6636959421489178,-0.028207447765152577,9.87278163799718,0.004277138745622033,0.006200141309214817,0.00033441077210910673
1.45,0.705290061232207,0.056077785816317255,9.878242673631046,-0.0006579720901902785,0.0031604953885107055,-0.0006627143110146549
1.46,0.5436259861759893,0.08586721414908363,9.753101995985865,-0.00025216992339048946,0.0023160284093718102,-0.002564049228086657
1.47,0.5367822245089425,0.06517475498352553,9.736912058671372,0.0011020460752980859,0.00040042073263025477,0.004835128187270166
1.48,0.6840096885474966,-0.024896663133894516,9.90032568092218,-0.003056571690760368,-0.009999659526387301,-0.0015531746007133775
1.49,0.6658476464138237,-0.08728373737552596,9.737747791838034,0.0019864301136237363,0.004820537285801184,-0.0034642150138590767
1.5,0.6619617096381998,-0.17660380525370842,9.804165879625977,0.0027104992982144487,0.005675771828090161,0.00375625331552745
1.51,0.6694704475092684,-0.021027239956991458,9.972132788916554,-0.003953175517228741,-0.003416131874186841,0.0021750172483732243
1.52,0.5871838225331129,0.09424698948497398,9.95311843508141,0.0081267015606255,7.082579691210795e-05,-0.0008266385966478697
1.53,0.6599962062024682,-0.08993327878095472,9.842864659695662,-0.0068480873255645815,-0.0018214343991210021,-0.0035761907695889394
1.54,0.6646907194150484,0.05601678780150123,9.771113250419955,0.00013599687091454606,-0.0075641199646758394,-0.0016429522719685471
1.55,0.5839247204748574,-0.07601220240414977,9.791844530758778,-0.005044671728805932,0.004701146529194243,-0.004295861789382415
1.56,0.7901616087135269,0.008485806110947059,9.910769216926672,-0.002861746188248714,0.0014106326297730419,-0.0022685778875196233
1.57,0.6786319972358204,0.056623329132401416,9.802270086706459,0.01179726311243162,0.004652575786397111,8.603289157109158e-05
1.58,0.545245701662109,-0.052759634947074224,9.739656112838768,0.0018405069272350253,-0.01177711593817793,0.00615862586855248
1.59,0.6928977904395873,0.013638774455753127,9.952542970768956,0.0025594833488358495,-0.0003657891146371125,0.0028292484137721046
1.6,0.5622213911786634,-0.0332073069380263,9.828442016695513,0.003439246219214034,-0.002081862586681245,0.0019008102058087537
1.61,0.702984019185956,0.05641189271505414,9.73737930148099,0.005243622707433502,0.0022744887160110762,-0.0012630299361866947
1.62,0.7325251266448047,0.018825373478770977,9.864122822671915,0.0014832538082893353,0.006911195318113171,0.0039198797050772555
1.6300000000000001,0.5740020279495571,0.004520613954341391,9.9231962095831,-0.005815335771360211,0.002933419071062107,0.0022707895259592805
1.6400000000000001,0.7165447408166133,0.12466799681135822,9.685729232225468,0.0058205676185578495,0.00016409756464900448,-0.0018467014569934271
1.6500000000000001,0.6723140659690039,0.05298449138946417,9.782595530397646,-0.006840824072284712,-0.0034729720349564374,0.006039727848761472
1.6600000000000001,0.7048722505418736,-0.055228149290103126,9.77704799588939,0.0009897824334959015,-0.0004989390671348822,0.006478118912962778
1.67,0.7906656271897334,-0.006869112063820948,9.860924459894017,0.005448012336729926,-0.0036787277681400487,0.00600498166813167
1.68,0.6191047953565989,-0.00607190280637286,9.882490998743183,-0.008292905153395686,0.002297724709502115,0.0017065419869693361
1.69,0.5782495130910704,0.006425565810016952,9.74047313064646,0.0057489095631922775,0.0019050583812275333,-0.0012228009940150517
1.7,0.567198719337153,0.2019607421285996,9.627519858891276,-0.0008278137052504052,0.01346624493371643,0.0004132022399079837
1.71,0.5729054245652888,0.029668151416879746,9.930465850551927,0.002985378459737768,-0.010105808799827604,-0.004136784490773406
1.72,0.6318113907774683,-0.1628722056083821,9.672256567530734,0.0025938402231556234,-0.008072612617606955,0.002746994168336256
1.73,0.6650798725234165,-0.04342391773735721,9.839192104605265,-0.0036256267720886776,-0.0051692565497773795,-0.003644181268141134
1.74,0.6597300726601055,-0.1545897669996647,9.790812292152317,0.007637694290721806,0.0016670896074513935,-0.004552181888754626
1.75,0.7035754703109598,-0.026383860563667184,9.826143268624488,0.003876699261540538,0.004148691720459359,-0.0019065405040132033
1.76,0.6382458712436182,-0.1589848183781143,10.004798076604823,0.00479586812547662,0.0050337481779911784,0.004256659836733662
1.77,0.7532922637367003,-0.06972723768547424,10.171243793634618,-0.003368760166195286,-0.005895259463879109,-0.008464336621004813
1.78,0.6156397170773606,-0.1216577223707296,9.610637510632166,-0.0032775731957377405,-0.0018390547918481746,-0.0014321804305883574
1.79,0.8542274320753979,0.030732814237398202,9.92471873863995,-0.0002360176037576983,0.008664942746050489,-0.0016978858661578688
1.8,0.6864678307607596,4.3149010310291354e-05,9.787900267278681,-0.0002438705829483702,-0.009087959194747872,0.011139857322690204
1.81,0.5676412921387244,0.024236984599898488,9.932392541645505,-0.0065795370034755565,-0.003534273522446782,0.0034786102343508252
1.82,0.5503408603843793,-0.008364111085482113,9.921521569141499,0.0012309621910908735,0.008215931351495351,0.003600068278637539
1.83,0.6744073272363282,-0.11154382001635343,9.975819376863779,-0.00040642025618930095,0.005220419344221792,0.005806539729341863
1.84,0.6177286955361407,0.041081709540378826,9.840845789819523,-0.0033007938069106887,0.004815146930821197,-0.0011113058134920506
1.85,0.6925208531418291,0.15377796482155623,9.699900821805397,-0.0005173895379275142,0.000714666415144528,-0.001903904361703765
1.86,0.6730538300906128,0.03273700628852374,9.917967938645154,-0.002172955739130062,0.00492360424124346,-0.0076446945267504155
1.87,0.6291614252334237,-0.03407396794540528,9.820809709137286,-0.005308134727295938,0.003373669915552459,-0.000364497295795778
1.8800000000000001,0.5670360708875491,-0.1142453740884356,9.778588814183903,0.0049575632601139156,0.0017896613906172862,-0.006668523295218262
1.8900000000000001,0.5133825327677413,-0.07264535766079723,9.749503134315404,0.0003141720963879304,0.0026727390054460828,0.0011701982926666018
1.9000000000000001,0.5986387696679359,0.03624317252576472,9.927410268292615,-0.0023413708681372476,-0.0013697016006010082,-0.002800425778803777
1.9100000000000001,0.7026604375112507,0.08584944214395,9.999054339040885,-0.0066259854080059025,-0.007313697824238678,0.0019501047804718426
1.92,0.6510635150317626,0.020869293977758076,9.663207692956043,-0.004357291827644516,0.0028779921372602954,-0.0029753374372576513
1.93,0.5340633085082784,0.06399098317647868,9.88128426909747,-0.006565742933574743,-0.00203971817612274,0.010471874862090266
1.94,0.6473621943110708,0.05661425952217943,9.761963537749281,-0.0004780538959151537,0.003229333341661157,0.0008440190496203854
1.95,0.6641173345608415,0.040522751310873406,9.630577312216946,-0.007025990180832308,0.007244816230115849,-0.001239109049119674
1.96,0.5623664880974821,-0.052677887620900476,9.82437469849156,-0.006552562823593473,-0.0025611675422166726,-0.0010312204748709921
1.97,0.6451551455234353,0.013913880958012197,9.706673466377252,0.0037473976175061274,-0.003403815903051401,0.01310172799991966
1.98,0.6372948041941772,-0.06787022431057106,9.617319612663977,-0.004685844912543036,0.0030599748111551435,-0.00986986370705806
1.99,0.5409803685545349,0.0013943162366481432,9.712841143333055,-0.0006184933312964975,0.0018361713966105744,-0.005597916269113098
2.0,0.6608197832404166,0.026469082485352954,9.683317129850337,0.007495227405208349,0.0021723832559208556,-0.0015882023242321367
2.0100000000000002,0.6768372753016493,0.1343027045909484,9.729047577632393,0.002118387508139877,-0.0029665708096839145,0.006256899512037881
2.02,0.7183952485547677,-0.10477855794941057,9.647543910765556,0.005076493009110879,0.001866950335537437,0.0030584602374896163
2.0300000000000002,0.7158308666836382,0.03852061047930443,9.759233186964854,-0.007385981050506092,0.007334725533722325,-0.0004967891063265051
2.04,0.5210876244005505,0.11849892732988758,9.721060104629922,0.005125228247130507,0.003749211117623485,0.005048573837719359
2.05,0.5560485602429305,0.060707821267103716,9.85172366525748,-0.005238814751294772,-0.004602496711579556,0.011241373844102854
2.06,0.672049693082785,0.06663563542600331,9.877874678367798,-0.0075967103674617845,-0.005488051767543542,0.00021621998299079726
2.07,0.671720975110038,0.047015592149424974,9.837867829213412,0.00022489863664304936,-0.0027000903856623745,0.0030803943595963607
2.08,0.6715920607255735,0.10386675918203335,9.778396665055178,0.004510417188002502,-9.083816454399593e-05,-0.0013424492984419837
2.09,0.9383758317045063,-0.08699825344898944,9.775158688516921,-0.000111310948075732,-0.002486803959872092,-0.008491184710944248
2.1,0.6755965401812265,-0.11087413327761972,9.706201001510635,0.0015046221850377288,0.0038291785687402046,-0.0007696363916195326
2.11,0.7205374580540196,-0.0005067312372204769,9.709090640870807,-0.011325390909527845,-0.0028585752266087616,0.00452861035933965
2.12,0.7057781764723942,-0.1728929682857368,9.891082464169449,-0.007191242562684046,0.0034794201105186003,-0.0022270806418488633
2.13,0.6813340854915263,0.09845166433424091,9.595485688161943,-9.387575337470446e-05,-0.0034294975539193575,-0.005677912548089735
2.14,0.6037649176539059,0.09765721563963531,9.796963007402447,0.007171232341351859,0.004079195162857452,0.0032236051475101994
2.15,0.6894665889516222,-0.0346680444067621,9.767826512612656,0.004542777411009564,0.0025135743615124846,0.0047206562789011705
2.16,0.5666845508917019,-0.029661647732840773,9.878545852164986,-0.0033195037299020747,0.006888434436395228,0.0064421552976866485
2.17,0.6093255193223132,-0.005787798012053708,9.635648561989317,0.0019024098375896965,-0.0014399727394252436,-0.006117646093248701
2.18,0.5892012873168118,0.00416165203516958,9.808147684658312,0.0011432888710209714,0.008424575898340322,-0.005804185866754991
2.19,0.6343385894626956,0.010173913535542832,9.847808120963093,0.0050903757426280305,-0.0023571943695327832,-0.0019304889240763926
2.2,0.81271855511559,0.044658568550264253,9.57808225376512,-0.005877294956314343,-0.003762464632834857,0.0032339104278057335
2.21,0.47792079056153736,-0.01381010824067825,9.677730643256591,0.0038556378437838456,0.001179290405383026,-0.0025040643237992616
2.22,0.6819578825211867,0.07545546427822351,9.795635218382465,-0.005517786011161195,0.00030879233405112986,-0.0018247715210830894
2.23,0.49779378447320255,0.03567582217002427,9.868347628916116,0.0010559071121871515,-0.001606188499101657,-0.0014783239334273147
2.24,0.5888094177586102,-0.048557075669810844,9.828549917333524,0.0007948034305623153,0.001760962323218612,0.006119606450488676
2.25,0.7134318540323579,0.1068090134243278,9.873904510353976,-0.0016849416703734633,0.002727472585261381,0.009018110295160375
2.2600000000000002,0.6312089738807493,-0.10866055888979896,9.677125298483121,0.0028603816211378126,0.005821254967824896,-0.0031031366963436193
2.27,0.539596683448799,-0.007373264865718119,9.615999958032637,-0.003601778201741716,-0.0007968706419246871,-0.0002646994260686948
2.2800000000000002,0.5683405899532992,0.07735339208603743,9.816790696690814,0.005354122585579724,-0.003648419745906774,-0.0004431395509879328
2.29,0.6796802557315124,-0.05784584839297157,9.659127611414306,0.00537412623506605,0.0010777179169933755,-5.4084851522911386e-05
2.3000000000000003,0.5666295829461961,0.02476445174137212,9.702811320874263,0.0011924881073346542,-0.005637762507554314,-0.0057187655712098015
2.31,0.6421210072954602,0.04346716775992384,9.918523402579165,-0.007941068758168041,0.001033408936848016,0.004594273749215083
2.32,0.6281944033814552,-0.06884190943849912,9.829341946812022,0.0038279324230193522,0.005718139962824076,0.007271111095269373
2.33,0.5721638942937616,-0.005798217567522805,9.73847261136935,0.0007232369224408156,-0.0003230385888677446,0.007379823474212299
2.34,0.795549645454207,-0.012520306416736814,9.722886219443083,-0.0035050759833854346,-0.0058926631019162404,-0.001694397262845509
2.35,0.6744887670340998,-0.04413902814658343,9.881160586826699,-0.0022787165466710783,0.0002416337291051047,-0.004250098455715597
2.36,0.4615038964346528,0.18413398816406198,9.832086512277998,0.0018486657238166624,-0.002845560201952416,0.006141019131779364
2.37,0.638170638290964,-0.06104850827563806,9.660903202921277,-0.005972827517198535,-0.0006973640802605116,-0.0016745714578875576
2.38,0.5700492977407423,0.08039442352543066,9.572911152027885,0.0011544496133523395,0.004633522414133534,0.0013310545319447148
2.39,0.6909237360386105,-0.03142408135049136,10.032466219916817,-0.0006429559917560686,0.003456275188826471,0.0042151238470807565
2.4,0.5590631974836864,-0.08693089511082254,9.659952492961892,0.001345998983521714,0.001937959136532478,0.0032331777314780685
2.41,0.6130206619677799,0.008225139452405512,9.869973580396014,-0.008219633629246253,-0.001754026057282283,0.0018811696560433184
2.42,0.6623322142084516,0.051927470751000064,9.987933151880581,-0.0014580374188718746,-0.0014407344481909478,0.0018745077139996692
2.43,0.6909262363628633,0.07364076600525431,9.824361708259978,0.0019882248700771525,0.0023352967728544317,-0.003961117308601528
2.44,0.5253736319965079,0.12498120885240555,9.734597598823935,-0.00708901680277091,0.004021933911762549,-0.003712077537442497
2.45,0.5943677046780091,0.235619703194808,9.635524114996514,-0.004057626781361381,-0.004508757627060121,0.005755150706677695
2.46,0.5828615733511749,0.020041136300447772,9.633848735641596,0.001060134060432316,0.0017126169919226728,0.0034477559161373433
2.47,0.5683191905150903,-0.05304737390603103,9.851853381841165,-0.00021185265207773304,0.0050634423133285415,-0.00598401577989779
2.48,0.7615491358639412,0.0362299461435913,9.980767158753997,-0.005428035028770032,-0.005703847328330193,0.002108342487851666
2.49,0.6524375381497305,-0.02129703603251933,9.759194908395456,0.0025320884809934487,-0.002362910183567517,-0.0011621917439438754
2.5,0.51889342713761,0.07407729038817838,9.739963544542075,0.0063403530039761605,-0.0034721809797654646,0.0014771639562664285
2.5100000000000002,0.6929171795113378,-0.10377314370925773,9.890347730897341,-0.003428579355099349,0.005479871624700847,0.003142130921363339
2.52,0.788983738294357,0.189466763392035,9.72433632953143,-0.006994607130022937,-0.0013040051482397295,-0.010395033955314603
2.5300000000000002,0.7015304211622309,0.06848384758204103,9.83958794891541,0.0045022779050541495,0.010236544754607176,-0.01090220560000275
2.54,0.49710450030138775,-0.13472032142369317,9.811666174010261,-0.007135493454685238,0.0008366004178492644,-9.229405144726714e-05
2.5500000000000003,0.5796352089610393,-0.05672231218519778,9.757513832970632,-0.002054225859025604,-0.00868810008625567,0.0016172341498756437
2.56,0.7194456043710655,0.0652864835291151,9.804785420951617,0.004437569259734894,0.014234927243771156,0.0065364396106841055
2.57,0.5611968737474321,0.09410752449371637,10.018228253757997,-0.006493579959706185,-5.9457055808841527e-05,0.002960388607243577
2.58,0.6530326452080474,-0.10177901017855706,9.879193953292114,-0.003441307237616482,0.0039000600077144488,0.003516888949684673
2.59,0.6792134170743377,0.05704206803463591,9.937750096510717,0.006186798578679165,0.004011213766337597,0.0014257182505387947
2.6,0.5428027992888678,-0.15578718981295386,9.696406676689593,-0.003189658735044428,-0.006465392972465787,0.0010950806907697598
2.61,0.611908695605807,-0.007146869237683678,9.938162337712908,-0.002019170458551755,-0.001535986188365715,0.005608952453596842
2.62,0.3570817673123597,0.0889637473682565,9.883332457056278,0.006844620069029302,-0.00617683308126652,-0.0010521530295759397
2.63,0.534143517482625,-0.04412125840823844,9.626698468412876,-0.0021660258514828346,0.0015745432100133586,-0.011331388444880809
2.64,0.5955993952881952,-0.12055378393104109,9.871424888004531,-0.007304189925213902,-0.0005874746651920284,0.003930576021526578
2.65,0.5156914562878955,0.011697183710204744,9.745057103584639,0.0003764536872678703,0.00335753536528851,0.0009865418884349325
2.66,0.7458152239384734,-0.04837750933083825,9.621153558840925,0.006381447868720575,0.007429437744160901,-0.0038023144358274676
2.67,0.5005181639992416,0.05036466928526686,9.822223087879314,0.004418226698937758,0.002540597742335274,0.012523340725417359
2.68,0.5794320162475057,-0.07082611457744484,9.871335110927513,-0.003989175095070585,-0.0005836776551590921,-0.0051613681665793375
2.69,0.6247998691520767,-0.061810951172248024,9.824842968237347,-0.0048646811605100055,0.0019278201082255045,0.0010277171026955541
2.7,0.7293464812245746,-0.16168018567009948,9.79355336981851,0.0027072554695408914,0.0025987686372453277,-0.0011781937641220555
2.71,0.49887858898621357,0.013595576884118627,9.766979759385,-0.001212695343490814,-0.004853993662359574,-0.0035057715214229733
2.72,0.7065025525945402,-0.0128723950621279,10.102640561120985,-0.0002840088827897051,0.0009851482092104028,0.0035539394579429447
2.73,0.6139689375164566,-0.09507077365920567,9.664741673376563,0.0030443032989608677,0.007785383827828664,-0.004863440462487845
2.74,0.5343293901473173,0.015503897101367362,9.911400637882863,-0.0011629270532203474,-0.004426522780988857,0.006386435346810352
2.75,0.6495170996666952,0.08216562405153113,9.808500756506678,-0.0025123694409821167,0.005775137262223181,0.007263930668630296
2.7600000000000002,0.6281712872803287,-0.017245435473515987,9.704114019247955,0.00206718481730391,0.001465294138625151,0.00019322572742289822
2.77,0.5639258023027102,0.0214533559857579,9.80084211392457,-0.001585530180832113,-0.0021869238191403275,-0.0007370836185715386
2.7800000000000002,0.6172229115677516,0.021864899966813133,9.639498083489364,0.009121891952395498,-0.005209276074830902,0.0010230461188799524
2.79,0.5805082012864132,-0.09634638617431683,9.735191151183177,0.003556529820937001,-0.0014218792067117805,0.0020804118562078935
2.8000000000000003,0.6201081734193289,0.16452686565660765,9.801017880899726,-0.0075230090634172,0.006625215731575899,0.0056557435572054515
2.81,0.663689689547039,-0.03766798640978271,9.620515952968104,-0.0004921294968682463,-0.004399179326525343,0.0039644907379345375
2.82,0.7372919842123613,0.05248929614882166,9.867415904618566,-0.005740597331510314,-0.005023120329548007,-0.00026804745534341623
2.83,0.5110757564279917,0.06153722217832397,9.690998675090615,0.007590207834940078,0.0032029092796765943,-0.003234975849946427
2.84,0.7804329783286298,-0.01116761016926014,9.632443485038372,-0.008410489707577514,0.0002076020681590704,0.0012571089295079873
2.85,0.4533115515571845,0.04854360200477077,9.676999871700595,-0.00036390040794401685,0.00903195840115838,-0.0006596344480422285
2.86,0.5970229907541009,0.01966553774531113,10.067764499420258,-0.011410601870878848,-0.0020356977908819423,0.002273222892737145
2.87,0.6559173539247103,-0.11341118057819248,9.569282302975738,0.0019344865437598633,-0.0008833914311751534,-0.0017110909303641102
2.88,0.6310164626223914,-0.02658181610000706,9.858984770652373,-0.009998114423991173,0.0004288537811076694,-0.0016931138803948126
2.89,0.5584052447038912,-0.04900407218832495,9.716453647477685,0.001246249410217297,0.002456446370101453,0.006205341860223204
2.9,0.5912544771765121,-0.036939603307690166,9.764634619417892,-0.004777825506569341,-0.0064699107725785755,-0.0028698336556220033
2.91,0.5681461917204476,-0.10432025422693103,9.87912171144164,-0.003677966225281536,-0.004127047873581388,0.007224532204341262
2.92,0.560118054143257,0.09011469733968241,9.87322824578067,0.0007420793576914721,0.009861967313140409,-1.535211512381346e-05
2.93,0.6749153301302805,0.12815941236907302,9.724966429700585,-0.005859382245329807,-0.004040872920988848,0.00512227673521979
2.94,0.635187288928044,0.0782402380798727,9.643711119204005,-0.005669258684802618,0.0027893832213193932,-0.0017837626457633032
2.95,0.5508711306751599,0.10164233793177144,9.881306916844077,-0.004649127863323804,0.0069325986607411206,-0.0029428301816001
2.96,0.6779486976905998,-0.027570786960652495,9.872935263161121,-0.004137855123001837,-0.00039446539776411585,-0.002541188464209325
2.97,0.6302404403545753,-0.050900546798882916,9.772453658945416,0.011074929502999343,0.0053017864668778985,-0.002953462112275815
2.98,0.6703601814442491,-0.062286963744936925,9.859683326057004,-0.0023766855562921576,-0.010097241375338692,0.0006870182554572238
2.99,0.6553752153250851,0.05152519383657781,9.753150462282935,-0.0037352967146940365,0.0004400569107996678,-0.009831370474521152
3.0,0.5383579664721135,0.01816504425153197,9.707405492195825,-0.00013378167994470807,0.008493356531167472,0.0002707058061616343
3.0100000000000002,0.5595347074063535,-0.006177736927874057,9.807125461734529,-0.0038734109352527054,-0.00010233362454912678,-0.0003212436809304311
3.02,0.6638032667722356,0.10361188353562745,9.868933928930982,0.010959165703781455,-0.0016642096461034327,-0.006016466516114285
3.0300000000000002,0.6525189523658735,0.032395308305227445,9.84376003234629,0.00010729087113719054,0.000977666189196495,0.0028114798317707807
3.04,0.6016857219777914,-0.06709261100164678,9.8677495216092,0.0037788092511569305,0.00977763042754898,-0.002978318508362693
3.0500000000000003,0.6124115246860258,-0.05447270633085558,9.715380535205304,-0.0034327487208909236,-0.00927068238577324,0.0033082688335786163
3.06,0.7049049769433255,0.05455946394033164,9.99647573497099,-0.00443657182719572,0.004458821399573099,-0.002458174567929227
3.0700000000000003,0.5550314927364293,0.08333862821236776,9.765564297359365,0.008629789858801837,-0.007167534444900342,0.005114627516763472
3.08,0.6457893807772886,0.044134418580477563,9.79238012182281,0.004519212814063933,0.002632882192321096,-0.005586318494937699
3.09,0.5855095329816724,0.1517510998297665,9.648411290893856,0.0026557541015427696,0.0006343737039835261,-0.009151281052063327
3.1,0.5839327728402625,0.13080057325851352,9.783387381244326,0.007791364948673312,-0.0017280570795849565,0.007406088480121927
3.11,0.6889107107873442,0.03528286678806103,9.870518528422181,-0.0003383072505099181,0.004911630316493692,-0.004297625558701409
3.12,0.6667021342654601,-0.06708645275852018,9.89815127352312,0.001072174771642419,0.0007197099656383861,-0.0016180051369631648
3.13,0.665408831714927,-0.10479900093854141,9.994082888462414,-0.004346114069573334,-0.015334003654197164,-0.004228797042467927
3.14,0.7044245712498011,-0.03099053960117719,9.869078187499055,0.0035025455678786665,-0.006976147744450817,-0.005940668199143094
3.15,0.6013237517907059,0.06025707571329256,9.839879583495964,-0.007174314041823533,0.0010444405815527814,-0.00446703292546629
3.16,0.6538558324735391,0.14613176634495503,9.753094586618282,0.006101714886000684,0.003673098535596372,0.0010006203197548149
3.17,0.5741333776686776,0.03339576275286399,9.727241151012038,0.001519748332879266,-0.0038147403632485095,-0.003813463129973716
3.18,0.6245421235290127,0.09349782353849893,9.923079821760178,0.0035551327329100667,0.004566960118185209,0.003511311859567731
3.19,0.5878504424143809,-0.019624598895024187,9.920778442208668,-0.0023529132821169937,-0.001956610387601418,-0.004658783909025146
3.2,0.6056736102916487,0.04982153001820401,9.677408475898147,0.003841269186289426,-0.009807277810201505,-0.01102118152428518
3.21,0.6451775169463868,0.06586854635817381,9.893421506458417,-0.010024296862254223,-0.010713446413471647,0.006785704507490727
3.22,0.5317572981606471,-0.15836754206820225,9.8846960429675,0.003934026817851368,-0.0059929830084152706,-0.0005296645334372307
3.23,0.764254909470573,-0.03307510419012082,9.672992933798296,0.007328951869241824,0.0025009931045621163,0.010571881339854029
3.24,0.5160304887820768,0.07597603074222958,9.871504816574701,-0.0005713306704640908,-0.0032757947318628263,-0.00540554583343557
3.25,0.4990237200584632,0.021957466850925193,9.680704424862183,0.00011822327899722574,0.004680321957934837,0.00049562516634645
3.2600000000000002,0.688453587239144,-0.09572120385207464,9.515134843879181,-0.0017909749982150706,0.006282602176586064,0.002644460480665023
3.27,0.658782620258684,-0.1944097900581885,9.787437710356954,-0.0005671824830995388,-0.003832956367225442,-0.0012722139576589737
3.2800000000000002,0.6450230572015436,-0.029262459624160513,9.837587764630598,0.002363736113784528,-0.003901744380575456,-0.006168264693837462
3.29,0.6450039599978481,-0.0057268554315103234,9.792841503414026,-0.0024007562830084127,-0.0002460484603886915,0.006816450825828886
3.3000000000000003,0.593398405783854,-0.07071383598626764,10.150702818062557,-0.005800186849312597,0.0011337404846642459,-0.0013878573665361575
3.31,0.5222386077968075,0.011446794962239553,9.852112147508196,-0.0011397039296136377,0.007696831514421283,0.0004060606866268382
3.3200000000000003,0.5997231142400894,0.04051093977863157,9.824307018315844,-0.004567774558578894,0.004443733607728027,0.004076203416534313
3.33,0.5391245875143633,0.053654973658098626,9.85820095639769,-0.005005855559608068,-0.005964683648435224,0.0020525986235353515
3.34,0.6709448613603328,-0.18847351399458578,9.753691719471988,-0.0001648445937081119,-0.002352913523544638,0.00528149253994185
3.35,0.5808074344399541,-0.10514280782464962,9.918187487451224,-0.002961403480178789,0.0021078145125169377,0.00587322183975394
3.36,0.5261679761338708,-0.024369811868378846,9.849970233541251,-0.0016956543007409267,-0.009145493673646123,-0.002015338916974246
3.37,0.5661315967303246,0.04577385048299708,9.844470604467098,0.0009464187078771912,0.005015029713814038,-0.002605803451179493
3.38,0.6245106784839961,0.03913872108400284,9.731755573255967,0.00861546723231607,-0.006494111893668708,0.0008207183227366069
3.39,0.5460108825187756,0.03774959583013406,9.618930360826107,-0.0011958151685460248,0.006735454465699896,-0.00736823590390971
3.4,0.5249628868499219,-0.030673435357514545,9.746483669310724,0.0021281737906796165,-0.001221158159473555,0.007645704748429951
3.41,0.6098661549490002,-0.026210674984796862,9.840566062751186,-0.004142793406112909,0.002076591312472185,-0.004190957702189243
3.42,0.6095981516679401,-0.05826634147373926,9.753286062430606,0.0009403108871142456,-0.0018468243636538615,-0.0019261487762871241
3.43,0.5490740089486679,0.06145553024846783,9.841657260048084,-0.00993717652385324,0.0020729203217904842,-0.00541119568475925
3.44,0.5515740252140872,-0.07363910301916626,9.778766574777244,-0.005583398075259457,-0.007776417027793873,-0.005280246791994936
3.45,0.6074477016614157,0.06800291161516558,9.858319538155182,0.00250239883164593,0.002255866442432045,0.0033185548027061446
3.46,0.4726625673259939,0.016628259051011687,9.689431104894961,-0.005134904464224054,0.0010739081278636192,-0.0030769176650206048
3.47,0.47553681227401823,-0.003603558276412287,9.829796801426209,0.004773648441691578,0.0021300697742215103,-0.003282591633568061
3.48,0.5302819683508727,-0.05253683198211733,9.729735502437832,0.005202877676591186,0.002536721703206623,-0.006935014134569124
3.49,0.5703043186346021,-0.1084433488931301,9.622056046944323,-0.008357610906657879,-0.006738429102633089,0.008245908582633191
3.5,0.6118742742800681,-0.05181222051024365,9.786831505236595,-0.0050773131301821515,0.009380701038409106,-0.0053365929152719635
3.5100000000000002,0.7046507388374801,-0.026400549489990904,9.991008108858164,-0.005869325276386721,0.004399762405316312,0.004627616554512181
3.52,0.6548545786258113,-0.18952194492650012,9.631620831058482,0.002779125868168096,0.0033805514689582233,-0.004008108876791668
3.5300000000000002,0.5730652891513448,-0.015788412426773143,9.820977070047304,0.004165015977403248,0.0011999833585930085,-0.0018263769479194623
3.54,0.5839566338391746,0.07394858944208045,9.902359247591706,0.0004730994889238385,0.005303229090746392,0.0019592530147890834
3.5500000000000003,0.5048921370228353,0.045377432434709805,10.082653682217334,-0.010789010463501737,0.004456139356459386,0.0040731935673127455
3.56,0.5832289884935131,-0.039696470059320595,9.747498042106397,-0.0018953233982027709,0.0005837414660956152,0.0005636987557966602
3.5700000000000003,0.5612318995536734,0.0037549038732182178,9.730809927447481,-0.009897297879883842,-0.0020083515454705474,-0.0018148853897345392
3.58,0.6097556255643639,-0.04449316555375998,9.666646936487288,-0.0007936343442664778,-0.0026292388193382226,0.00331420884611691
3.59,0.5173722147610855,0.011900858666855689,9.943511960181546,-0.004045644492823284,0.004550385830117762,0.003078710416985499
3.6,0.6247099609943556,0.12320862589952253,9.70256028049131,0.006802091939007958,0.008668995170685269,0.008702259107077795
3.61,0.705391903272495,0.07747990420999008,9.762178428186957,-0.005928089821840142,0.0017209291779756411,-0.003588931281567044
3.62,0.5736815301676479,0.04166354445542022,9.584777454715448,0.01640149794844559,0.0030703567949239507,0.0070815599484689695
3.63,0.6141278337276761,-0.03943079299069746,9.912726621121422,0.002176847517492444,-0.013177215428515686,-0.003917825158081121
3.64,0.6368099719866676,0.059995071435587084,9.945640993693363,-0.003427914703431539,-0.0019506763878181317,0.001797841501267149
3.65,0.5491073750360004,-0.13495015610984426,9.908143007630123,0.0025066636220718247,-0.013136682198582952,-0.0011845978208803148
3.66,0.5987379755898101,-0.02018827855927124,9.614010966237553,-0.0024293806069282963,0.006905191618512457,0.0029612230204021585
3.67,0.5814225381624211,0.046696913585915996,9.879508124893515,-0.000915387612019017,0.0011184041193134078,-0.008435115188593635
3.68,0.5878328085131561,0.059233697123820116,9.60592955383312,0.003306760224159035,-0.0019776946029638615,-0.004036893863808785
3.69,0.5177805186039346,0.05359075921725928,9.813614836247709,0.006571159199181284,0.0013679041133879651,-0.003327154650903477
3.7,0.5811837027709708,0.023586455136775562,9.831259309598055,-0.0030219657312473996,0.001829531698202469,0.0014408564823698098
3.71,0.6186633471651453,-0.015657998326710634,9.84387198617299,0.0001471252571222226,-0.006016781942979772,-0.0052773201005463085
3.72,0.6945145757260343,0.04303807758611911,9.870806383916495,-0.00374156989083129,-0.0009807321537636787,-0.00020655531553920065
3.73,0.6547633653140434,-0.07622888324690404,9.805685967572886,-0.0007998551286744029,-0.0005712248053524162,0.009406227989605349
3.74,0.7498739175284939,-0.06757418106346,9.571158458472572,0.004246250432965857,0.005941083782741183,0.0023213199578198986
3.75,0.5158281478618183,0.004938774116823738,9.870864521055942,0.00036201336158123913,0.002049791198071062,0.0011291008630771998
3.7600000000000002,0.6465972467522068,0.01385581141669979,9.81836297693533,0.004039891043057764,-0.004875702333242169,0.003623735473082136
3.77,0.5910736108442656,-0.1460492142851717,9.698335625035451,0.0008352933438865094,-0.009035435188245695,0.000428608433155465
3.7800000000000002,0.7511841519567661,0.036411710475961485,9.618322309463606,-0.00653108900444592,-0.0026749883669302506,-0.0007959532987747064
3.79,0.5109287344250261,0.061818270233551464,9.991452662310923,-0.007535509344208361,-0.00026870591453110763,0.00034234038535254193
3.8000000000000003,0.5080065435708343,-0.006182818997303626,9.954406064594881,0.003775368658984426,-0.0022688267514210233,0.0013723750215974457
3.81,0.5268235874390681,0.18995730266271937,9.891364888876893,-0.0004770637455690537,-0.0020913536810082184,-0.008352886475701848
3.8200000000000003,0.40445306439775064,-0.0546348085052149,9.725494010651834,-0.0005580015366474892,0.003722562487012514,-0.004668583952925583
3.83,0.5318930597176649,-0.028886973070949562,9.504610533734617,-0.0010889193064913675,-0.0003524366321381758,0.005512203158908817
3.84,0.5128106041839241,-0.03160535249017675,9.898411501052228,0.00015053911928020308,0.0014404368765654552,-4.32802353176971e-05
3.85,0.5851594929351049,-0.0060950089032814035,9.850652412862608,-0.0024615291248673826,-0.005672369587787551,-0.001425360487023079
3.86,0.600054258948764,-0.02629798503730329,9.761690522911339,0.001966796522296035,0.0006153818399978863,0.007397584648570771
3.87,0.7223922575640717,-0.11254484356838974,9.941626756803744,0.004729260183085898,0.0062027895026073795,-0.010161383048256428
3.88,0.6479163264038187,-0.04372386369891803,9.908409704075542,0.007896671261919772,0.001334057976635727,0.0020446273121090056
3.89,0.5253129759131192,-0.007809655661926087,9.827781458587701,0.004480136728305904,0.00010658654206813284,-0.00535190273751659
3.9,0.4991739644852684,0.0982857665649598,9.810857010144533,0.007237038165648362,-0.003841110300619435,-0.004928586897412563
3.91,0.6099815632670254,0.17617946186983308,9.812766126111962,-0.0011715045750291904,-0.0019300196727326747,1.9034171140628454e-05
3.92,0.46458928658256726,0.10683791182805237,9.88824278474017,-0.0004910413981943003,0.006735648837846207,0.0022966129952610537
3.93,0.7163035809745395,-0.06203032237380852,9.703752838414841,-0.004288984895664642,-0.003602521292287975,-0.0019409432382904057
3.94,0.6637200496116371,-0.05566476885009324,9.857767974614204,-0.0019210050238524607,-0.002573720684067286,-0.0055087100902179685
3.95,0.531407772442093,-0.012746286200748079,9.696179086663648,0.0014520106871807634,-0.0022780225126940667,-0.004759007295225214
3.96,0.4314670720734134,0.1427647111082869,9.967036620610267,0.002427375975463451,0.004239109993866454,-0.0012281854890011394
3.97,0.6764026599843842,-0.013233924174551473,9.870505428589027,0.00890743182259258,0.01107760349515587,0.002484450766806378
3.98,0.5585037446697914,-0.10620059924299445,9.724062608603328,-0.002344053595971755,0.0013447677718837888,-0.006122215326236364
3.99,0.6662653268048367,-0.04009417095624281,9.81632149888357,-0.004359318037826642,-0.008413445692004503,-0.0031423249125073255
4.0,0.43925792675002695,0.060564480145553365,9.704195634396635,-0.006162601250956125,0.003120283659578435,-0.0037457926279515436
4.01,0.5184332840068288,0.05519522215168695,9.987143540524094,0.0013831064575829,0.0037395322036171616,0.005856712057542608
4.0200000000000005,0.5663729577278227,-0.01601733331933249,10.001395118136545,-0.0017671227065551528,0.0015531874946989694,0.0017125075028175246
4.03,0.5692811154128126,0.05467317388480245,9.89019684190754,0.006360456907610908,0.00391779039541973,0.006516724943933554
4.04,0.5290856673470179,-0.18185377620374657,9.993448788118549,-0.008323257291403078,-0.0033213550503592543,0.005159084171119634
4.05,0.61448616853906,0.008306338802615814,9.8248655138647,0.002903509184489125,-0.0006252277286126498,-0.0023702494168000615
4.0600000000000005,0.4788148409600076,0.06885483370949042,9.898271508060976,0.003943422723144646,-0.009897885357195614,0.003960955926563674
4.07,0.5523994510850798,-0.06662906201236282,9.95361694262917,0.00045344133020407595,-0.002444197587961325,0.0025122045095157266
4.08,0.5729778289615429,-0.06690708291970304,9.805960768538089,-0.0019302454114255821,0.00014509367362935052,-0.00023122900445178896
4.09,0.6040726883948525,-0.14931585222107802,9.81518246287808,0.00372264961991732,0.0007959091059163153,-0.009545598255566376
4.1,0.6194092106190472,0.12719164758485552,9.918688792171467,-0.006960469012516116,-0.005420831015994635,0.002282723333892907
4.11,0.47207012793248987,-0.05761231816172534,9.884229755871518,0.0027842621076137725,0.008351785923771022,-0.0050721520548378096
4.12,0.43887287348536314,0.01928346222896894,9.715994713575872,0.006546264849439082,-0.009689393324883902,8.878978745560637e-05
4.13,0.6633757024712502,0.048313363318669963,9.544230475447423,0.0012260170002234706,0.0012079512828471477,-0.0015479775887852329
4.14,0.5873052657177752,0.12096543593131624,9.785586632488354,0.0005894779593022443,-0.006176097853176494,0.004325807433982112
4.15,0.5003988490961766,-0.012311821918850822,9.555020298492979,0.0012489521672672036,0.001811167067409344,-0.001395082307770405
4.16,0.6839265973031105,-0.04315438350227349,9.687727919667333,-0.0016398981237441695,0.0026236544708263397,0.007949869249787042
4.17,0.5686441179843189,0.013845411885644279,9.701735565135953,-0.006968155452996144,-0.007220350873969454,0.0013310265619446177
4.18,0.6532886714458983,0.10272642212338295,9.738412922687184,-0.0016610004317715856,0.0006205288583624691,-0.00011894657299669653
4.19,0.5639001669765908,-0.0136138025120627,9.905102577299624,0.0031100468392684685,-0.0014308171510997215,-0.0060410589494963385
4.2,0.722911357224963,-0.0763895265267261,9.931171544887631,-0.003949269805459858,-0.0008022582744724809,-0.006274852344356989
4.21,0.6980306691944791,-0.123260624665229,9.867698886376864,-0.00018426953375492072,0.00030377327857250845,-0.0017890179993557416
4.22,0.5372371930471426,-0.09770379076841802,9.882550837127416,0.00104611066895897,-0.008071392904311551,-0.004765921692816193
4.23,0.634429969459474,0.0691513197925332,9.885384454764237,-0.005713494431518024,0.004399283689737118,0.011530820012903172
4.24,0.6078833839099227,-0.025649958104544922,9.50703040105349,-0.004404097899861373,-0.0011762111848371841,-0.0034671462130774064
4.25,0.6652918939808605,-0.04860167279365683,9.807873721840853,0.0011061262040397174,-0.0030420432471007764,0.0014138993837359362
4.26,0.47815460161651646,-0.057277377854715386,9.591074953459598,0.003325133083607934,-0.0061191246894537876,0.001357571577624842
4.2700000000000005,0.609778752772944,0.0068036688160145456,9.867746737080584,-0.008970280116095233,-0.0012826698222022663,-0.001618402127403848
4.28,0.6391138016343165,-0.0191564075012467,9.555477022321636,-0.0011456852525754606,-0.0015603022819560771,-0.0024746356028319426
4.29,0.41328494046833847,-0.0218505714975402,9.784997375757916,-0.0013289108919744255,0.0011906884588842495,0.0013312860369387436
4.3,0.4588667258280745,0.10794591422485914,9.872382373122349,0.0005759967234981625,-0.002867987118232379,0.005401683241273914
4.3100000000000005,0.3899311916254289,0.12304130254893067,9.672519046202043,0.007626775418291001,-0.00644207157522626,0.0008213457797496006
4.32,0.5310586304256746,-0.12880173383271973,9.922055915261586,-0.0023407096626224624,0.004627990264474997,-6.297100604253979e-05
4.33,0.6095550220957918,0.02620741849143661,9.86744466039421,0.0002658897395156811,0.0024748391169572195,-0.0014876947926512792
4.34,0.6718797241538719,-0.06214896788971138,9.852348963500548,0.00838740538699,0.0025486986415827525,0.004658037474874148
4.3500000000000005,0.5571573154660587,-0.019860089108887483,9.890410190501264,-0.001102777979820659,-0.0006142783079296853,0.004058124297820024
4.36,0.681056605207336,0.024742270810135553,9.763545989468001,0.0035559113412979284,-0.006243342661663135,0.0006381629824140952
4.37,0.43989592970872127,-0.01701759335447355,9.824880263650817,0.0023691897278321316,-0.0006515031249834871,0.0018946378284166304
4.38,0.41356919309080237,0.018436790450210655,9.807856188668103,-0.0004399712392284783,-0.011233754719778222,-0.0065544571998608315
4.39,0.5449307720653955,0.0538376164825534,9.805144126646063,0.004874922170964095,-0.0012219012521116576,0.0009484549762121579
4.4,0.579633682291706,0.02356614404322559,9.72600627080235,-1.8284014955983175e-05,-0.004126491494143195,-0.0023353923591152926
4.41,0.5458257843888242,-0.05174690433340988,9.657546146233274,0.0016447473841908367,0.002154980678485898,0.01094204735240158
4.42,0.38257797435359886,-0.050335968557625906,9.766226998085262,-0.0023887108938880613,0.008353195791629459,-0.0043020744145026825
4.43,0.5403747783788309,-0.11517642372944284,9.759616251136688,0.0024430009687267905,0.0008893630976591736,-0.0006293277558759294
4.44,0.44267692254869334,-0.06831362380165747,9.718242281497973,-2.8292259313529477e-05,-0.0031130749595294524,0.0045195227773192305
4.45,0.6001374502160532,0.15696546895188226,9.908896453817203,-0.004213075202944542,0.0015876296015744707,0.0037792916678868996
4.46,0.5754197331960399,-0.06336028592761955,9.665985205857325,0.0069210154669385945,0.004858847344489886,0.0028621472319886212
4.47,0.4704287820871944,-0.09547030499550559,9.786068900933051,-0.0031886598157499658,-0.003928875761532073,-0.0056928944256484
4.48,0.5040361681880946,0.025594228947581867,9.94661076538735,-0.006171327847133728,-7.020190721715607e-06,-0.0036370835118326094
4.49,0.45993386231342415,-0.008829180743348788,9.915745522311946,0.005996128172447996,-0.0028948079578021446,0.0004712791868584134
4.5,0.5391811054934093,-0.015647458947938033,9.952605266211673,-0.0013232188422008589,-0.007019287186920754,0.005447204157901592
4.51,0.620130375662112,0.1127236773129672,9.735756330715093,0.003477410423224965,0.004052610444615241,0.0029747333012447685
4.5200000000000005,0.4643835314141827,0.043930134044669215,9.900764575087324,-0.0037974251749756,-0.003700244826183886,0.0022599382059655783
4.53,0.5830870306317426,-0.04239943453627803,9.679093552362623,0.007714597829921006,0.0019298944892159953,0.004892333384254864
4.54,0.49986346417969524,-0.033958073407342394,9.773545125302014,-0.0026293616614895673,0.005489254549849908,-0.0020973419606738737
4.55,0.47837408213877486,-0.04020692111245481,9.784839302706377,0.0012007963562309975,-0.001830805476894069,0.004445780868384469
4.5600000000000005,0.5327603866274413,0.06997916972642057,9.737549174536237,0.0045138099464257005,-0.0073839054007158456,0.006626489171110899
4.57,0.45802140879234515,-0.024651810356250997,9.763232321429856,0.01188204596379597,-0.0017766634151564508,-0.0006340078583161115
4.58,0.49606590260421685,-0.14345228019633205,9.747444888700317,0.006197148971200764,0.0003338372765285786,-1.9871550165472522e-05
4.59,0.4440437421825473,-0.0038655742987475455,9.688762742667796,0.009484843669437065,-0.006771485807040135,-0.003944815650668645
4.6000000000000005,0.6965671857214453,-0.12296208009023434,9.909419620720694,0.002089114967779291,-0.008097722969378503,-0.0018650459170153181
4.61,0.5417245365155245,0.17473844814039216,9.784755999655086,-0.0019108281503761333,0.004808869101111577,0.003464265172509596
4.62,0.48243876559164994,-0.07725343310777848,9.830822385270073,-0.00841613624414661,-0.003465616708422747,-0.0034502814204680054
4.63,0.5550476304006386,-0.012949181228618455,9.826303224543143,-0.0010828793837517042,-0.005487735948046736,0.00225823970985833
4.64,0.5284545031503396,0.020656218776090952,9.813217171013202,-0.003470935346518719,0.0029431096800186154,-1.4271219158483615e-05
4.65,0.5192737678567111,-0.0230926528543384,9.81778654552677,-0.004865375695051947,0.006941386513727483,0.007088633171415215
4.66,0.5855943404650599,-0.02320243211729541,9.769999933596276,0.0014517265760488982,-0.0011960310642200886,-0.0052814640668738975
4.67,0.5965703706962134,0.03374618289287017,9.976857624221783,0.005355566849362153,0.004113197675115662,-0.004069979725065126
4.68,0.4930374931448275,0.1220972767037023,9.897939371396243,-0.0034340636684040797,0.0022846023208785626,-0.005877218736755836
4.69,0.488919039237192,0.0614007265453838,9.808855843932522,-0.0031284321187469567,-0.005202828324863158,-0.005041670048171761
4.7,0.5124863595703341,0.11828111028588342,9.753003467684072,-0.003600322470988507,0.004530020772527713,-0.008772732401701852
4.71,0.34984188318239906,-0.08372952864748015,9.79239149887251,0.0021674213998948556,0.0012897366640509881,0.004841718820424652
4.72,0.41228445741738884,0.02538901066042891,9.856764581964608,0.001285244935652496,-0.0018941966233306656,-0.004076548627199325
4.73,0.6423529356834742,0.012419684164662341,9.986642811104357,0.004952058369547257,0.002484740421276464,-0.002465678294081074
4.74,0.664102749976585,0.028087303334138784,9.641884294640194,0.004544558620833303,-0.0022293910760305693,-4.709327469979469e-06
4.75,0.5120838759072134,0.11009855765084581,9.885822971037014,-0.0030224185427231514,0.002669209522001142,-0.0049709567509494
4.76,0.5776318307123918,-0.017663131983364326,9.941856836413436,-0.0014929434403307567,-0.003272768916255573,0.0013185598083100835
4.7700000000000005,0.5559068899043013,-0.03244026932432702,9.62824378361137,0.001942439591205164,-0.005520804635458378,0.002032156944123726
4.78,0.7768160362242981,0.04271846379349311,9.784911894792247,-0.007383616918455179,0.010959865857194804,-0.002557365346400494
4.79,0.619569349462925,-0.1422562182052678,9.678907843230034,0.005246303324844713,0.0010058319628291667,0.0012089775050958538
4.8,0.5192668260835747,-0.018948163929774265,9.858313553401244,-0.005830369629231287,0.00421720429540819,0.0002432356595719991
4.8100000000000005,0.45255296772376463,-0.010735815142836239,9.763647888117333,0.002350698443421951,-0.0004535716142255878,0.0006502153145831251
4.82,0.39997556050037264,-0.07362868930455402,9.791033311974385,-0.004435857971158842,-0.0007644553841536187,-0.0020994460415967257
4.83,0.544262514584172,0.08456472090852618,9.757323303126583,-0.003527855988780573,0.0006726286984745659,0.0018169347790925783
4.84,0.46697061699723036,-0.08497922538746273,9.89306961193219,0.0012538600486492327,-0.0005113039741823283,0.0020555452751512752
4.8500000000000005,0.4131907289369449,-0.010869843869103698,9.834133955271776,0.001210821059908876,0.00048763602247489364,0.0008307550998447903
4.86,0.4747366410996266,0.02345257802583747,9.834361211684758,0.00591501494883968,-0.006025367807013252,-0.0015929808490894653
4.87,0.4394291756051577,0.10827612491808948,9.825924619009774,0.0016908730431143613,-0.00791367951241333,0.006912922416630353
4.88,0.6604139895492631,-0.0008445147904682653,9.875348905654256,0.0012740893786224064,0.0047845088221187,0.005598809392774415
4.89,0.5954625818167536,0.07489228753025684,9.775213377417241,0.0020622646445532626,-0.011162968527220249,0.0007384711086510498
4.9,0.523781433017231,0.05604763178217019,10.010742974504911,0.0010594345676429898,-0.005434333777857022,-0.008948367283764086
4.91,0.6423017199174245,0.009876604493531402,9.658474629853776,0.0023083465140067688,-0.0062459516860896794,0.010307086044833928
4.92,0.5295817002028009,-0.08716107266187643,9.599539786219642,0.0013156864090657795,0.006757558587524545,0.00015581699683890716
4.93,0.4539746494510577,-0.11476646887234791,9.589608331766971,0.0037576941398814135,0.0002663196561485911,0.005027864651878368
4.94,0.6442115657691379,0.008520432113534917,9.557099425684907,-0.010191659507676734,0.004440739219447105,0.0033438208046710823
4.95,0.5649578020601965,-0.04341574991220908,9.88743037777843,-0.0007707582904151049,-0.0020458194233239657,-0.001495511252548852
4.96,0.43834777102984807,0.07354088733450334,9.872814123913916,0.0014138348419099939,0.006070196823279829,-0.0026709460388875594
4.97,0.5055819406595224,0.0596685214478862,9.95158317901307,-0.008508835455794046,0.012422904921225317,0.0033578728225684457
4.98,0.4502402537735613,-0.014768879554963985,9.679853414235337,-0.001956058070209925,0.005944233594985242,0.004668469509075524
4.99,0.40914552320307596,-0.09261703391530154,9.89610537456946,0.002461411868349499,-0.002385258459972474,0.003336612594921687
5.0,0.5933426025077612,0.04085884396858187,9.813468887457915,0.0054477941184635495,-0.008600363661454226,0.0011224749098605587
5.01,0.671479737249948,-0.08143595569081204,9.826640379898702,0.0014908785138873443,0.0013303833071443625,0.00023091808258088661
5.0200000000000005,0.4063181185902326,-0.0606771138344692,9.881724747441952,0.00593036537676951,-0.0010565846653858197,-1.3927246444850554e-05
5.03,0.5627172939868378,-0.07835325905721235,9.715896189872506,0.0015783265903922795,-0.0008903476365240842,-0.006930006283755773
5.04,0.4651036930476692,-0.011080081755196276,10.117119896248537,0.0010706502184446645,0.0011272818868572907,-0.0018258254070772472
5.05,0.47765952527071687,0.09361538672564493,9.966475636513042,-0.0006615745826465109,-0.015899351198199903,0.006042030246670672
5.0600000000000005,0.4687116141967934,-0.0004032696178822961,9.742845285520556,0.004505150879302998,-0.006689155902412588,-0.003377336225137811
5.07,0.44645655439682896,-0.03545749539421566,9.675761433073198,0.007242606805207953,-0.005774253386604761,0.00239229344618067
5.08,0.5189293506167788,-0.12204919440361954,9.796101500583436,-0.002460083655402223,0.0020507097834258285,0.00025069012578532505
5.09,0.4480425329584531,0.044169966778387436,9.828521013229844,-0.0014161591463854601,0.0019426093662572705,-0.0024652359292422366
5.1000000000000005,0.5356251286103288,-0.0624323684742902,9.934523831164997,-0.008921164364777372,-0.004638611343768673,-0.0052392931244047295
5.11,0.5094386933631524,0.00940140953264773,9.6664034906118,-0.008020595789604361,0.0018470003317385259,-0.0008638334530525357
5.12,0.49381017814512035,-0.02833748927333125,9.8409084331839,0.0017697053290490986,0.002603756778016877,0.0037823441838012086
5.13,0.4397883298215791,0.06705417756795502,9.623168197070225,0.002034608705743907,-0.004898042983971095,0.002897627626254877
5.14,0.46571823925790795,-0.012578911362284173,9.859012911209334,0.0011090236960385304,0.010950523895624136,3.9591699365026355e-05
5.15,0.5717568896298321,-0.004714108361844129,9.793749493545034,0.0019144989286646614,-0.0004741280440715107,0.00024447925348273933
5.16,0.5508637362914939,0.03885977179643677,10.03905157147429,-9.306677041548089e-05,-0.002173117881003261,0.0008867682887745816
5.17,0.4320498361902056,0.16855521458105485,9.621129694693638,0.0031088022106155458,-0.0020975333968532932,0.004177866442551132
5.18,0.5176638603942136,0.07107575442868436,9.971123005778812,0.0035715516479989736,-0.004401311259133232,-0.004818448628090722
5.19,0.5692903926287083,-0.007088488507888753,9.602190239780054,0.002240767000534634,-0.002937678924895733,-0.005228553236347466
5.2,0.37508827460340033,0.00025583924922307176,9.64738476707122,0.008584487230767015,-0.004831637821493426,-0.007617977240796197
5.21,0.5515699152754336,-0.04198875682595477,9.60539865298334,-0.003918466942105573,0.001158240968612819,0.0003677603866710664
5.22,0.4545507313440326,-0.07599965628157562,9.836692313014126,0.009436067150824158,-0.0038419647388638224,0.001180782034939615
5.23,0.5526671880305624,-0.044220062965305756,9.66580614270955,0.005642444441945749,-0.003295079242466742,0.0035186210403448577
5.24,0.445416355739301,-0.061771917096955405,9.644850219366335,-0.009160855504294872,0.008793772697053693,0.004973788807536075
5.25,0.3615434460945294,0.052269470703670835,9.830982112194805,-0.003403374986044858,0.00414908888916858,0.006565914497299667
5.26,0.37518667809778916,-0.08569558862951888,9.860863046304962,-0.006443342919083642,-0.002999389494873904,0.006730417069214662
5.2700000000000005,0.5086920618701877,0.10665684491040354,9.811431916498039,0.0003373644471998156,0.0021808308284974164,0.000350986143031452
5.28,0.5250773942450344,0.06016371068950638,9.787183702117414,0.004457444218329054,0.0025646582027401654,0.0005310863196100138
5.29,0.4314077279653688,0.0016401383494134775,10.026119155892461,-0.010508463239086599,0.0032000531525747094,0.0036462048832960558
5.3,0.5542930553752681,2.5488917205465154e-05,9.824150351949037,-0.006197694363785137,-0.005857994541178015,0.0025879929783479846
5.3100000000000005,0.3697357921617856,-0.044582504769164276,9.903332976870669,0.0009716253406713473,-0.009873967909608303,-0.004110108520727889
5.32,0.4968218904319462,0.021606752907821127,9.823800655082794,0.0015692154945101734,0.0033833843458443407,-0.0029215960991290095
5.33,0.40467699517421646,0.08704739705668713,9.674904845409438,-0.0007372824424918137,-0.00439676052847311,0.006619618370807654
5.34,0.4488605599561979,-0.0562525169804651,9.872636521828241,0.0008729413876300455,-0.003338441414073733,-0.00578150716087409
5.3500000000000005,0.5042476412482958,-0.12267136711349844,9.727954322623624,-0.006334436843994843,0.009057773596261655,-0.0008675592209755796
5.36,0.431070119765355,0.056257460388539515,9.79573166343529,-0.001997605450891244,-0.0010662190726585061,-0.003151048930684112
5.37,0.46858533032449223,0.02594927793950404,9.843298321827211,-0.0005350524653928825,0.00017464201802484485,7.501766071093917e-05
5.38,0.5792989278526008,-0.08961590411529435,9.573679831973603,-0.0063129889933822726,0.004462154900240968,-0.0027647971657028337
5.39,0.4520890281334729,-0.05867130967312944,9.613509745132992,-0.0032933167360540685,-0.0035191300826627127,-0.005262358465655487
5.4,0.5645397675193216,-0.06872834192401125,9.915785100699708,0.0013389883264365628,0.004474909861700001,-0.0036149460931690666
5.41,0.406751018271586,-0.05796258152273992,9.727000426408127,-0.009215628926908859,-0.005135572988042118,-0.0022414297464702615
5.42,0.5389542171528845,-0.02589462032329502,9.732691361306935,-0.006157176557156263,-0.0029936584450103556,-0.0027576341214036694
5.43,0.6113368379889991,-0.021323784342459785,9.826622607684499,-7.745011058463689e-05,-0.007274772331261456,0.0029005668649615293
5.44,0.29772040384078485,-0.052063492405476815,9.760369288345375,0.008304694093498948,0.007145586027400508,-0.002920220736491288
5.45,0.4311401099843487,-0.06065310555999426,9.856760605797135,0.0033432758057917967,0.0027512690295100556,-0.00021762581464615537
5.46,0.5404964191842542,-0.018302747513550523,9.800515385352034,0.0008850282058756181,0.0034152189842952194,0.004416879021867207
5.47,0.4775250896920987,0.013415322788764901,9.830482354021653,-0.0040583613170086345,0.0037384569499134142,0.008332312617427227
5.48,0.5228976159515697,-0.02530372290918757,9.722426993170929,0.004410908210087698,0.007682314576449303,-0.012917596784225173
5.49,0.4443235115559988,0.09269336186730413,9.829881378793711,0.002978545313140471,0.001321256349541029,0.005135423486117829
5.5,0.4990050457733738,0.040647017153662916,9.939260690420253,-0.005628130787892011,-0.002530705458858588,0.004502683664903241
5.51,0.47905837706437926,-0.12726766854869567,9.738520214066295,-0.00529834278728916,0.001211571287256906,-8.46929145277442e-05
5.5200000000000005,0.5843689717553967,0.041898221233108275,9.916488196032658,-0.0009796533343300689,0.0028634932104844493,-0.005577503936896832
5.53,0.5107330839903069,0.04844351860684661,9.800462761801281,-0.0039005839081506294,-0.0006962439772348005,-0.0060059118258545706
5.54,0.5168197989440445,-0.034778797449935304,9.894787798717353,0.006154609011665211,-0.003993835687150213,0.0039316480002044695
5.55,0.45629275886118076,-0.11961580698425245,9.822102558202372,-0.004377516534736577,0.003520986030713757,-0.008044243372234477
5.5600000000000005,0.44966491009376924,0.0006453407528908872,9.802640689588248,0.007043077005222541,0.00567566502553317,-0.0027629175406127626
5.57,0.45349840753416076,-0.0006166921185795263,9.848617561849164,-0.004128203160385669,0.002289012562500604,-0.007630531109018746
5.58,0.5190880521388123,-0.08973169892265558,9.952281707476269,0.00017376043397125573,-0.004037942174589198,-0.0012715505763898707
5.59,0.45328110509908554,-0.11609753730079485,9.834981675305809,-0.0032192438553683422,-0.003991843164468909,0.00852397078812293
5.6000000000000005,0.5095690005401114,-0.007004283716275155,9.864073699709007,0.0039027174166848594,-0.0073993149108607294,-0.004379067023837043
5.61,0.6518453908926962,-0.018646175364065754,9.762431810370796,0.0042872451466745625,0.0048434342190225394,-0.006925413478264231
5.62,0.5549287858606214,-0.03338122922579149,9.995156376879402,0.003493024243456518,0.001325145580665111,-0.00970834982532801
5.63,0.4585815781542361,-0.00667285877972491,9.88349045331156,-0.0020159885919665463,-0.000680816581752513,0.00024245902683674083
5.64,0.5801843951845206,-0.08822210990562553,9.815975015203,-0.0066029139366001145,-0.003815077520923534,-0.003114718693242071
5.65,0.45086424278315224,-0.034785649029289135,9.791931559329438,-0.0026783785832987534,-0.0025949872362640808,-0.0006631645545724177
5.66,0.3198824725424805,0.042666002449147804,9.923998992312773,0.0015481830755520877,0.008871128622572898,0.0043544437677328325
5.67,0.4017068657235626,-0.027997606428103103,9.733905510754568,0.006584316947548765,-0.002403778425118414,-0.005019615751214649
5.68,0.33211092565510864,-0.13375779774340416,9.59270499804744,0.00400712637773666,-8.105469942380174e-05,0.0036515890006476835
5.69,0.453072883847054,-0.03781538221788573,9.815337951930934,-0.004411501122925209,0.0032428854938382112,-0.0008762474320494583
5.7,0.48208629162580213,-0.08561267708054883,9.94945054877372,-0.002304504922341347,-0.001833778828250058,0.0024521670862393875
5.71,0.614145841475952,0.02137090371693846,9.99760705734216,0.003870706581721949,-0.0018320707886042872,0.0017215491421166463
5.72,0.5056022590787013,0.025506992270434025,9.793774726787934,0.0017040819716658895,0.0036916843001581316,0.0049345759664157695
5.73,0.46133641803533576,-0.13270197000688247,9.811880519673013,0.009056106936363564,-0.002325851932615061,0.007300049498300924
5.74,0.5446324774759499,0.06072103764657512,9.868993651901913,0.0005853718753066994,-0.005474006027058494,-0.0032524224302363613
5.75,0.3008039573820359,-0.08897490410228467,9.774928069736347,0.0023298006010810685,0.0036188035596273695,-0.0050813392836391484
5.76,0.49595787935584923,0.12473458323858812,9.868618713806937,-0.0038194212830911472,-0.002665583284294565,-0.0043168401094903185
5.7700000000000005,0.5381910453097168,-0.0039021011600493495,9.796401789871807,-0.009400424951237434,-0.011096568564816526,-0.001909035577491858
5.78,0.35764722872083904,-0.09971147988313299,9.928014190862822,0.0012603964481318322,0.003277928033793253,-0.006811670369872223
5.79,0.5668459349241357,-0.09135888565541452,9.893407661571738,-0.006726695586963491,-0.002639643015521781,1.6712264442859278e-05
5.8,0.5018359926597266,0.027847623342987588,9.903877339876292,0.0050439080019839926,0.0035886103459510993,-0.0018391408557353148
5.8100000000000005,0.44094310205870857,-0.03130399119187021,9.782011882623749,0.001800776523088822,-0.004217696195650853,0.00037172877824911624
5.82,0.5241977270991617,-0.0077323127694512665,10.037761278460271,-0.0003121164651677167,0.00702151144913994,0.0024677754191272886
5.83,0.6546388376167074,0.12902241861576313,9.864719433085536,-0.0038539252300135137,-0.003802774129063409,-0.0016654576644739986
5.84,0.48694013013466464,-0.05593952513832602,9.83632528641842,-0.007822330022215385,-0.0011501018907339481,-0.0007182960482418144
5.8500000000000005,0.4916550879428506,0.004797028615656529,9.715336842331963,0.0023326343948318587,0.0030606267607442544,0.0004945820469401948
5.86,0.4344543719720836,0.11358755898984425,9.795001381582173,-0.008149963433197805,-0.006105232655738681,-0.003025524617997097
5.87,0.4026206898808917,0.021641078037312012,9.820375571284316,0.0032614572431744456,0.003092619855373291,-0.0012471913654738382
5.88,0.5364392938901305,-0.12852821882864046,9.712128724429084,0.011798652048834363,0.007807837925328451,0.006199596989259524
5.89,0.4009291062688355,0.040431120938570944,9.771571942507709,0.0035032907729631623,0.0022927087692085706,0.001927880180555367
5.9,0.47454369076269326,-0.09304022862267554,9.786753997827638,-0.009025145641812334,-0.0052564217839735404,-0.0011106839337429915
5.91,0.4300075721800645,0.1125446022986372,9.813360479310786,0.0006393624770545385,-0.0006222826142129648,0.0013613839060549909
5.92,0.5059395278347878,-0.06582940839983822,9.595125161195007,-0.010516502748713198,0.0025283215140966676,0.00031068777905997823
5.93,0.4937142827955291,0.23756076061965317,9.790417535115488,-0.0009372497937915261,0.004636560172634635,-0.005227666916847782
5.94,0.5494238822824627,0.11739007906621426,9.761368458030407,-0.0011844742631399597,0.0014220920569924373,-0.004265056543048206
5.95,0.4250179480036905,-0.06372900557023829,9.804143902045011,-0.010016719890410794,-0.00576520055172699,-0.00032360293621945606
5.96,0.443627040090109,0.0016011044001288388,9.93088318794163,-0.001245098718314367,-9.133024583354629e-05,-0.003296384220617303
5.97,0.3863129155158347,0.06029154253067708,10.052937459054544,-0.006561319162765639,0.000685041291039638,-0.0008326149724319454
5.98,0.42846673373380995,0.06269283793813661,9.888055263957355,0.0031891744138083157,-0.003738423914638941,-0.010104259954226596
5.99,0.49358962067606704,0.035386900798095776,9.65851933935204,-0.013022299892250587,-0.002007346072405401,0.0006395458105889816
6.0,0.5233592632237587,0.1001727229572888,9.765201165780095,-0.0011615626098091499,-0.002825752261606243,-0.007956912065790472
6.01,0.3884207476223028,-0.009837515730749561,9.87816559705973,-0.009446811023536086,0.0018363739049729974,-0.0011380061489474275
6.0200000000000005,0.5311554548724479,-0.029337413486082653,9.864644859571483,-0.0018175915738002982,-0.007708754774585594,-0.0048312829995500566
6.03,0.5694302267591189,-0.027749119033968848,9.92512908825437,0.00022552174754870264,0.0014230797673252782,-0.00082120066037581
6.04,0.4934454172281593,0.06866985855777018,9.794967880685128,0.006896247130811954,-0.002877469479281502,0.006434359607549015
6.05,0.6099049280578941,0.029214483224211687,9.763029970676138,0.0010843338064599978,0.0005406672114373296,0.004662613582396991
6.0600000000000005,0.39724797741953627,0.02330269325522051,10.016940880469924,-0.003120636737420904,-0.0016460172958748126,-0.00611770783020929
6.07,0.35896780063445577,0.06361873994057456,9.813690472404357,0.0046760626075270165,0.001677527206175647,0.00548896675952309
6.08,0.3156308348427099,-0.1640841926283084,9.684649074877466,0.0010243170157335476,0.0055152110759565855,-0.003736445621398909
6.09,0.5769994928819677,0.024805505910012033,9.98366603884395,0.004936198284852416,-0.0019890746372682013,1.2659681751218127e-05
6.1000000000000005,0.5090519100803303,0.01748551110989726,9.627118541032665,0.003641777566635069,0.0116392062147393,0.004100264368555241
6.11,0.451641810960804,0.1335046465040564,9.387244573301366,0.004571730674762859,-0.0027268897726747295,0.0007849899547979392
6.12,0.4778712203055479,-0.12228703858109337,9.898976410964508,-0.0004793363366743316,0.0070383306727681266,-0.0007296709760229348
6.13,0.3648189715405695,0.12457493059014065,9.915934116522955,0.006642709261746799,-0.006508233533596951,0.0069938866252492096
6.140000000000001,0.6499018394314858,0.006032730313973265,9.856331553033362,-0.004307004232590946,0.004269420787104015,-0.004321652312346034
6.15,0.46396218302685827,0.0391191624528036,9.650355269920954,0.003091736286653347,-0.004812935802586478,0.005182404707116367
6.16,0.46175810217075275,0.13407350300875012,9.799585617370921,0.00422622732968564,-0.0030034371213274913,0.0028904225449475573
6.17,0.5104491024336627,0.04486090144044584,9.773269771173535,0.004737163241612291,-0.00461659526811832,-0.005170014221292335
6.18,0.49024898982594733,0.032029463157004875,9.742175318692913,-0.005356523654844394,-0.006065013501877984,-0.0053804642300679375
6.19,0.4690586779019715,0.019383294864185472,9.976098331697113,0.004623941045766602,0.002789249106319974,-0.00848001093595806
6.2,0.3872889311668288,-0.03867825079955015,9.681050072964197,-0.0025508349270312583,-0.005789182943616419,0.004307650982544238
6.21,0.48762251585072125,-0.0022791299608314313,9.844582534372767,-0.0022482286809304116,-0.007722137114102749,0.0008508253388528987
6.22,0.5998443957750884,-0.05724102128981989,9.94993563803951,0.003032460540656827,-0.004768492166192176,-0.0013245795834070976
6.23,0.5562926586934642,-0.00356535195403856,9.852422983038284,-0.004511977423201223,0.0062202369605939105,-0.0021567906843596592
6.24,0.5754898353114131,-0.18687445576440773,9.955584204699445,-0.0036091909863120056,-0.00025662746924571346,-0.0010377466498345401
6.25,0.406512733549188,0.034323165405403894,9.874295766691471,0.0034424669693300172,0.006080236129644439,0.0061181162551124995
6.26,0.367615917901521,-0.00973898030269004,9.858171960459043,-0.0019095368029623744,0.0015255681657382748,0.007442499551452245
6.2700000000000005,0.43609490022025,-0.026896298933341143,9.850670184259856,0.007634994041875026,-0.004379530773467678,0.0029612260832167225
6.28,0.44998863263782984,0.017580646715211454,9.880263191998017,0.0021160278638591348,0.004631937722223499,0.006218087839188939
6.29,0.5324379835542942,-0.11468511383723526,9.760385308310529,-0.005204880046471028,-0.003453391525172877,0.004538043781537963
6.3,0.3088767517928942,0.1543415997297026,9.650425137775265,0.0007401537742499332,-0.011136206037779072,-0.008331412210728998
6.3100000000000005,0.5660084465690617,-0.008221396919007974,9.921135209375597,0.003312865706494892,0.004195554612858265,-0.00674743852140132
6.32,0.4303735277953903,-0.011667554637775166,9.946059076060692,0.005495837810639209,-0.000985736655458258,-0.005112370648940159
6.33,0.4082326536628017,-0.07723169681063378,9.836887457308725,-0.0028014794502426187,-0.0061137161302440195,-0.003079554916905315
6.34,0.36078301080305875,0.0019157105959408999,9.740844925643875,-0.00934448985444312,-0.00036916474499058133,0.0029355934396399948
6.3500000000000005,0.3087302917109679,0.11095679122186244,9.619723946016443,-0.006737124837293468,8.510135311473565e-05,-0.004023260140882093
6.36,0.5063391809685532,0.08287329675456272,9.816946851990807,0.0033440041768211925,-0.011572035456494515,0.0035594442402449877
6.37,0.4457169256582329,0.06835502009124449,9.644775958633844,-0.009088782987265101,-0.0010497017311169683,-0.0035445905824134944
6.38,0.33601981666177994,0.043711916133381726,9.627971499683449,-0.0018035146340443084,-0.00764695378388717,0.008300688202568908
6.390000000000001,0.3349748346478851,-0.02868340220500878,9.804162216638117,-0.006432815388051685,-0.0060382680298786285,0.008974102925427588
6.4,0.41108205674503157,-0.11601305336293616,9.714997659857438,0.0016135081803783202,-0.006271282617302992,-0.0006439383795192273
6.41,0.5708295005801682,-0.016083101749330805,9.848087146739772,-0.001178647346428994,-0.008438254187873154,-0.0037913129700911435
6.42,0.41590266700160444,-0.01886971716269418,9.787534527692575,-0.00013190355937650402,0.006332089529187761,-0.0009441492161301482
6.43,0.31577998719290273,0.08390355517369928,9.733853852053286,-0.0005682260380700363,-0.004075833354800998,0.005479453906041172
6.44,0.4157326795191746,0.024751235396785618,9.602060190312523,0.004511608757504757,0.003946673864907588,0.0005591943253479084
6.45,0.41293419423727756,0.12898492223228386,9.704303424900356,-0.007992867809518382,0.005433349494215176,0.00028664873968890775
6.46,0.21836035861704897,0.09579908320305397,9.70871362119387,-0.0015429576074317195,0.002242295309463158,0.0011209485191400802
6.47,0.4291261671285307,-0.03651964876032766,9.659613079178204,-0.005345989967809498,-0.0016039893074302229,-0.009520463962078314
6.48,0.41435271769208304,-0.14361033572958948,9.767164684570913,0.00043013317299478833,0.0066506388365057,-0.008978075687342376
6.49,0.4878809713144548,0.11084601871531849,9.668979761059042,0.0006431403490573804,0.003342392668972615,0.004081784918622334
6.5,0.5794571912094473,0.10875081785845954,9.787000870325054,-0.003730948804104392,-0.005511153648325019,-0.0029352598256126667
6.51,0.5210214080290305,-0.10929692727217809,9.835499345640239,0.005954355149797259,-0.008547778226619817,-0.006079834975259053
6.5200000000000005,0.40873987414308255,0.12073920158620005,9.707509605473298,-0.00229384742262891,-0.004878356089560682,-0.00020836367707019194
6.53,0.34108292318704536,0.03056937364740143,9.85769903553023,0.007072629697143772,-0.006019092234041218,-0.0007318308824888328
6.54,0.6348270705289545,0.012854839850052242,9.643287055450275,-4.125484700238282e-05,-0.001672931242839805,-0.007892124880406108
6.55,0.43304831636439034,0.12918266033978618,9.673188712192445,-0.0031891276108844515,-0.003174181757748979,0.0031675197781878906
6.5600000000000005,0.42877700647163547,0.10757481385844919,9.793063924285027,0.002097896488492522,-0.007759478747653988,-0.0019356817900838949
6.57,0.4250837448365827,0.05210647615961631,9.889094931026635,-0.002501276040918782,0.009773476418586233,0.0014615659015081118
6.58,0.4422108896772749,0.03785736526495864,9.910737944978711,-0.0053871920951526755,-0.003883989613008254,-0.001892726995976947
6.59,0.414164902309318,0.04931154324242873,10.000136874658907,0.0018118378769577097,0.0024246047308111906,0.001002413213457227
6.6000000000000005,0.3791696717111669,-0.032004594710602075,9.761459335021899,-0.0010488262281813225,-0.0006800016209517118,-0.0006448461320705919
6.61,0.3806620856274909,-0.004408115978585676,9.791349841758603,-0.008914549486429429,-0.0003064581082184007,-0.0028862702789718623
6.62,0.4211379807582472,-0.07218537236756341,9.68272893651784,-0.008264151103923655,0.012089412890182423,0.001556518029935595
6.63,0.3796309760354269,-0.026643182059113504,9.656198040161076,6.551629139148528e-05,-0.0018556399529789471,0.0036511122932434306
6.640000000000001,0.3654232854837235,-0.029330710293514643,9.834078650359302,-0.0058115012960350725,-0.0015635214597140657,-0.004760854413370369
6.65,0.4303106328267991,-0.05082442956973317,9.71354542006645,0.003607814268356764,-0.004133705729263269,0.005506639058168486
6.66,0.4007425809951476,0.010939720211877049,9.954535504002074,-0.0004963769380189475,0.0038724504841352813,0.001999294421854373
6.67,0.540804019639453,-0.025918468056046175,9.631163712175912,0.005296224169977595,-0.0046758829801426165,0.004528115924733202
6.68,0.20775009755650578,0.04017877762815791,9.865012384698963,-0.009312943266146317,0.00021563381056842929,-0.002729609661515073
6.69,0.5064906126937946,-0.12978564906350123,9.685961291341956,-0.007022706919975185,-0.004467610624966702,-0.0032032786313966684
6.7,0.5181985440152774,-0.009068383528583976,9.708196183987349,-0.0009827584105193301,-0.0026242482592459637,0.0004001298676982747
6.71,0.25198145698969,0.010524131214199655,9.871343447830244,-0.004150791577942849,-0.0023842885050066693,-0.0014453303252043085
6.72,0.3897778990438683,-0.024850339186950447,9.72554434766705,0.000910481111653784,0.004244236409187814,0.004268315035326895
6.73,0.3868171534298735,-0.013791415984738502,9.744755911897611,0.0011874199590108246,0.0021512650830279928,0.001559334579227377
6.74,0.30327028955417756,-0.1268196808583886,9.709190996373811,-0.0015732108793177324,0.004502915013089396,-0.004572405462418815
6.75,0.35298397996254105,0.028518168373559364,10.020853574993613,-0.010240727341519228,-0.005207446933771781,0.0070156040755214345
6.76,0.3257006257209202,0.05180847860536564,9.732551642670398,-0.0014771656924883936,0.0013706450309188378,-0.0013697500828510221
6.7700000000000005,0.5540649969059779,0.03948298353630135,9.812836266091931,0.002808326644131789,0.00035356333003188636,-0.0003429600461612629
6.78,0.4880735917799145,0.08309816475537464,9.782420367966271,0.0030688916752522255,-0.0023283896930941174,0.001860388913485258
6.79,0.5142789787835644,0.016122368462600158,9.833220047406911,-0.0008736083053890803,-0.0005371312660644602,-0.004092987496616372
6.8,0.46962288026255566,0.038294494452074966,9.732881566364087,-0.0010797782469313636,-0.0027062127512359063,0.005649600893805472
6.8100000000000005,0.32089881163600054,0.012487259076548192,9.782551931855002,-0.008420358319293808,0.004446299457222313,-0.00872128840344491
6.82,0.3685944656058051,0.05500405756739953,9.853924241079271,0.002686078188049808,-0.004188651171062141,0.002831611320841704
6.83,0.4490384819045739,-0.12617837089056977,9.703089143439641,-0.0006067950400808213,-0.007161766779443954,0.006793092699219086
6.84,0.3114500200604573,-0.07148647743824087,9.937368562795378,0.0038832315492782167,0.00251587728499428,-0.003201848721939324
6.8500000000000005,0.4655911457633464,0.1269519725626473,9.948907662284995,0.004055423067262328,-0.006416258107991213,-0.011138230612536652
6.86,0.38865556603311113,-0.19683486576769643,9.879429115139049,-0.007811629345961005,-0.004609940181632074,-0.003774184420452664
6.87,0.3772255609239914,-0.011214234386027516,9.815035166031578,-0.002174217844230447,-0.0019521661730981864,-0.0032491914114551592
6.88,0.4634169528811964,0.09378199676864546,9.447777826215455,-0.010581573860830883,0.0009606168380532408,-0.0013233737672566758
6.890000000000001,0.4414094536451769,-0.00746085324334117,9.857564935918536,-0.0034817179227369173,0.006990106456863471,-0.001210826822776822
6.9,0.3763186333177308,-0.0324008857160558,9.759690351372535,0.00029265866228087674,0.003979250758915662,-0.007449304211137471
6.91,0.49726915441727004,0.010353734145224032,9.777097070629894,-0.00011305026833950922,0.0039627392700831345,-0.00045664451349456086
6.92,0.3173638543661318,-0.02824961440019573,9.578964720337261,-0.006516712933427958,-0.00241237722472637,0.0009449332287182387
6.93,0.4524492275716768,0.0024679594205551333,9.865880618304903,-0.010534389450745665,-0.0067633049755062204,0.009867684479675547
6.94,0.4499472472672463,-0.05467048292161037,9.632820274380764,0.0024229511384245613,0.007417352803581404,0.004331588507539412
6.95,0.3770595094270428,0.08869395359645793,9.820860945518966,0.0019699182158706484,-0.0015453961947175313,0.001906069371924086
6.96,0.42723725578076027,0.11386119368525288,9.91520889782918,0.007249820954311778,0.004127694615837147,0.0008340515242338967
6.97,0.3003802299657995,-0.010671225768929805,9.750330618241893,-0.000861735345998219,0.002491617937354317,-0.002660213036452855
6.98,0.47371349349543956,-0.11091915365529946,9.952576207027413,0.00249237205207226,-0.0034897774549802465,-0.0017696044374271192
6.99,0.38432049189412515,-0.04190745362507162,9.717011154615138,-0.005138527331082502,-0.002198815220471641,-0.003418638292431228
7.0,0.35661546814984524,-0.014719092808237138,9.87870196920772,0.008459576955545537,-0.0044724787861389415,0.0019241764780394514
7.01,0.4816740121356529,0.04044311015225665,9.650075709824977,-0.004734411596767911,0.0002344801833805801,0.0014495770097719472
7.0200000000000005,0.3407250615632561,-0.08064105785365425,9.930385652161663,-0.009255518369618505,-0.0069885074416110105,-0.004773365956189915
7.03,0.283714255462476,-0.06153298549137205,9.911768845909513,-0.006516184370242681,0.000420426009727584,0.0012129010437743279
7.04,0.2711787484491293,0.04085409102870459,9.862852950755647,-0.005315359776837674,0.0006209921846627738,-0.002120393068856908
7.05,0.4435071235614358,0.07511270656316463,9.759455903606343,-0.0004973801678444338,-0.003142116448029582,0.00243828366231073
7.0600000000000005,0.29190854750999573,-0.049727523613654734,9.638409925188625,0.008174646284688388,0.003871671078092892,0.006966954243395587
7.07,0.5340423228285065,-0.10665736431607968,9.759773162173664,-0.007014123915531459,-0.003378545511365711,0.002826179163990077
7.08,0.22641965367548153,0.2627294561030307,9.939886861089775,0.007541470874417212,0.003252202134532868,-0.005131120426869318
7.09,0.5280050604557176,0.06266433896709708,9.822245424588294,-0.0021732866740944027,0.001667022182940705,-0.0008232976081537358
7.1000000000000005,0.40848382087932184,-0.02136030094136253,9.620285568458506,-0.0039938622885918535,-0.0014512722167221506,-7.218009379789491e-05
7.11,0.3831785760638457,0.06952250204246718,9.671682683269607,-0.005424606527387894,0.004922545362683674,-0.0021980741127951985
7.12,0.34663462975590675,-0.009956530377153768,9.957028168102273,-0.0003628811315539717,0.005175263518619934,-0.000624993330529777
7.13,0.4214709088906171,0.06937255112801491,9.865199530255346,0.004901794142207945,-0.005146004304583633,0.0021647795730814156
7.140000000000001,0.3858404391241211,0.012751455822097775,9.658569985511209,0.00419661177856977,-0.004149339992395245,-0.0008918479618320264
7.15,0.4764258951692173,0.007301751853405861,9.594750220459048,-0.0007883779231529013,0.0010481960857485326,0.002374008086698842
7.16,0.396609820685874,-0.00908654945846309,9.731644943847991,-0.004556030993111553,-0.0003002742915065887,0.007956590867872896
7.17,0.39880494997298116,-0.11579050667704718,9.584486955041209,0.00526938395812402,0.0039692192262191835,-0.0009638979896731602
7.18,0.3570003696037339,0.15504759195145118,9.78794986119916,0.010644154123635617,0.005149070942531302,0.00018709433964716172
7.19,0.38084157265413443,-0.07532271362141947,10.100845044620355,0.0011020535779535069,-0.002294248273695206,0.001966858455791528
7.2,0.409328579666668,-0.10880188610484756,9.615015270916098,0.0029653751686345682,0.003513040422735485,-0.0009034194609522391
7.21,0.24719752316581314,-0.017028790620509385,9.784326920415253,-0.007368496688138358,0.0012089417308991227,0.0035339675296530318
7.22,0.2754620592405099,-0.07691774508084054,9.96408118903975,-0.00489276670177599,-0.00045416288997686394,0.006707329126201965
7.23,0.44208326215817395,-0.004137023244821683,9.89654054299601,-0.006017375290350223,-0.001418671748942321,0.007435695739691748
7.24,0.39559595570152867,0.055021107884941495,9.788801114224103,0.0007885767705688501,-0.0026300591412011976,-3.515796555203585e-05
7.25,0.36651198533696483,0.07962423204233784,9.789088159579816,0.004129585661391404,-0.0010175276759187843,0.0029879105746953754
7.26,0.3820086452558918,0.06517845772973453,9.66794082610905,0.001174950793378726,0.0015853920517431995,0.0033077075550406636
7.2700000000000005,0.4076430933708263,-0.024450564382854423,9.774531307599332,-0.0014741404148664642,-0.004722553764361434,0.0023719780272355244
7.28,0.3359577580085496,0.00396734621292687,9.835862885708815,-0.0006620205638838472,-0.0022405561295669196,0.002631926446540236
7.29,0.31617548024898046,0.03263032407179928,9.93926362519289,0.006386735405968482,-0.0007728919150939225,4.224769279054902e-05
7.3,0.39340815609057245,-0.1406229939153658,9.732228925178228,-0.005908836095631895,-0.0011134730420593584,0.0011064522342542477
7.3100000000000005,0.2987707436268484,0.04564677600958877,9.783869784632383,-0.00010222049343868837,-0.0018107791642705132,0.0036292083506678343
7.32,0.4090001703979538,-0.11658394300670652,9.692744382309197,0.00029003839289144947,0.01294401559190825,0.0010385963242805177
7.33,0.23943200085825014,0.16322772791251913,9.83368902154486,-0.013732514263452225,-0.00556015804367572,0.0026605963963485173
7.34,0.4572692357930743,-0.032361206771335624,9.900703534037074,-0.003216548999705651,-0.002906151339147725,-0.00619614921976364
7.3500000000000005,0.4120420365659359,-0.0147900141755673,9.882207761611587,-0.002383662353251644,0.0009696387793714227,0.0019291785719395983
7.36,0.3940134286436556,-0.06157656793902844,9.666227550946918,-0.005099478257488862,0.004027030566582428,-0.005956845449024612
7.37,0.451442500504615,-0.05039760254845518,9.824273585134769,0.002189780544956239,0.0016852338731834912,-0.004671790925172438
7.38,0.5053607104070633,0.18192748553145918,9.725372496609976,-0.0052665776304197855,0.0019114522030244088,-0.002799412593013454
7.390000000000001,0.45256725549045806,0.07522957508986382,9.92797600187834,-0.0009524967265494773,0.0034366790895739552,0.002395685806154887
7.4,0.22344197080739386,-0.12393619561182707,9.787292473267176,-0.0045797225754728565,-0.0002678959514841308,-0.0046735760094641894
7.41,0.26763937579512076,0.12033703205481837,9.624308399411069,0.004349694749781683,0.007682584321408503,-0.004225476575966965
7.42,0.31931303674400585,0.09545938201131453,9.780273675327072,-0.00015583551983181749,0.004587305056655548,0.00012105504164150498
7.43,0.37067816401931736,-0.022496996983063077,9.861666708303865,0.0028075264369021315,0.00025803165755471617,-0.005284018539435546
7.44,0.40929532711250827,0.02453575536238701,9.835930727577136,0.0005946250858893587,0.005636418196165255,0.0015714603490378982
7.45,0.3091141955382179,-0.0011955263536859396,9.745234478361763,0.008118371418945971,-0.008857519295107134,0.001895237248201032
7.46,0.38140550772201753,0.15780639235575458,9.736417193215463,-0.0032400399259158927,-0.004378155805628861,0.006672093042858644
7.47,0.30532337002269727,-0.06370321511936723,9.688149472214041,-0.0012750248884468957,-0.001757726306666506,0.001717879425594421
7.48,0.3161217917091015,0.011680848782058155,9.759280045559763,-0.010762592265231505,0.006774329699418344,0.009522151570570677
7.49,0.251798914046613,-0.034251626479424375,9.703968524016902,0.004575567225111161,0.0020599487028569864,-0.0010828771357073294
7.5,0.2897611036789783,-0.11464323236942833,9.923060318341276,-0.005376061593910911,0.005970319078663819,0.004581708116344357
7.51,0.25477233343929206,0.17533106040439897,9.698513513112205,0.0022505812745869276,0.0016681444472417101,0.0015029620693265333
7.5200000000000005,0.28412395833968507,-0.094525326328193,9.821324135483463,-0.0026296835989466434,0.012505844139659057,-0.0014281177026115974
7.53,0.44577125838660775,0.01761033499902207,9.81316646839916,-0.0021335209673921944,0.005603031560225747,-0.00014602886212173907
7.54,0.2848134802455693,-0.13925604851042683,9.920130093746188,-9.497257626420194e-05,0.007072846860399019,0.0033930762277518817
7.55,0.5706408150717381,-0.031925643139447464,9.937374194675003,0.003647092733871464,-0.007088552470963591,0.0020027008930452324
7.5600000000000005,0.3987999235513827,0.0337575057146766,9.89016639319376,-0.005028039677974386,-0.0022749700337246098,0.000878206347814096
7.57,0.37340500726269427,-0.06597871836018902,9.849001401194815,-0.00018104901037792331,0.003271091530143861,0.0038534982592080503
7.58,0.289232506356646,0.04694414805885241,9.680812462468712,0.004228169196413111,-0.006721004715700808,0.011813291310184389
7.59,0.41320831727400903,-0.021523287351046597,9.678385589471409,-0.00012289434387935942,0.00606466676833605,-0.012571564238912994
7.6000000000000005,0.31041428694811657,0.09280660099188906,9.705167101628206,-0.0013266439988185272,-0.007303410488354716,-0.004306826849795092
7.61,0.36550727355106705,0.10894087306721786,9.89688051995535,0.0002527787579190822,-0.0016737471926042983,0.006570085035655418
7.62,0.5598338172114181,-0.046939580858400935,9.815449591390076,0.008844959984866755,-0.00483417106366016,-0.002438825826839301
7.63,0.3466222196131209,0.006138628751436547,9.910888868888266,-0.005155441191160424,0.005779500897087278,0.000795218023618739
7.640000000000001,0.4455282280396847,0.014676338117778616,9.92698632811841,0.00016165584981173942,0.0015623320536366759,-0.0015558544552465646
7.65,0.2966109924119802,0.04954794363477588,9.71953577196409,-0.004282350129182648,0.0002552737689539842,-0.0013350418251871796
7.66,0.34934416704272003,0.001150559699541259,9.810498919306863,0.0017351203863734072,-0.008159892842601116,0.0009317929135664569
7.67,0.49308483360591493,0.015216876747427378,9.805090758557968,-0.0034462300290168785,0.000756524687067778,0.004525448046853754
7.68,0.3005403524548533,-0.01947251798360956,9.767315477245093,-0.0027812387555760164,0.005983602578850902,-0.008703812925048007
7.69,0.4949699351294641,0.009219189357761465,9.742468857457034,0.007719144152606932,0.006192470261739571,-0.004432948179552308
7.7,0.40586993906664803,0.1038352154828106,9.948820660409327,-0.004391127060575295,-0.007474779765446082,0.004606893960603202
7.71,0.30352757746932985,0.05168665929694835,9.81288660720586,-0.0016520540634109874,-0.002018849500294031,-0.005614074813692952
7.72,0.3983920767882527,0.05610045115546952,9.808227374627172,0.009059869472177138,-0.004863804648249364,0.00012083069362618207
7.73,0.42487775581181814,0.05784562593084626,9.710316679015769,0.001079848548628473,-0.0019933559142115273,-0.0030044535781254362
7.74,0.3960915442961022,-0.01230470223048284,9.88767549164962,-0.0018463072218673079,0.002826666663764977,-0.0017352857750593637
7.75,0.22000152374876333,0.02550616348636243,9.686037099899437,0.008127728436497646,-0.0038851934290179773,0.0037705337633517134
7.76,0.2867206890858023,-0.08681389426685958,9.86123866346136,-0.008781993559172802,-0.0038846251741799444,-0.004081460830396069
7.7700000000000005,0.32436174315707317,0.10150461250535657,9.864517523206619,-0.005519567665818303,0.001417362536278023,-0.0005509359679607306
7.78,0.3374795408080921,-0.22263683458745764,9.757148194081172,-0.011394138589264526,0.009977677196262563,0.0008800809717188148
7.79,0.3923583756099535,-0.006971871386834015,9.84476824974198,5.8867725787264565e-06,0.006550594242984927,0.004944304446957503
7.8,0.3561904933354641,0.09127167817202195,9.828930347085338,-0.0014908664694924915,-0.009762565298505837,0.002821928226427326
7.8100000000000005,0.23441608405491177,-0.10910943469034733,9.801926725022781,-0.004814230873743264,0.0061963222929471195,-0.003880818312988463
7.82,0.3709280956114561,0.03198239340934809,9.808203277617427,-0.0022593344759498694,-0.0067159054731966965,-0.00631147680501417
7.83,0.3886271784745958,-0.05446131572632215,9.814063818783222,-0.0005453769034945304,-0.0010112976424646678,-0.002379413067604246
7.84,0.38383102380286604,-0.029504261215109497,9.822239400720646,0.010265058120044399,0.003018231830599541,5.121661463126374e-05
7.8500000000000005,0.4247771341801789,0.07567527685115502,9.813879043761244,-0.013786628751348664,0.0041288411434715865,0.014972681490570568
7.86,0.40429475697414297,0.015844554070812016,9.674186297174542,-0.0009397512776102153,-0.00405256261566091,0.0008166232737055057
7.87,0.3735811209869614,-0.16274846943074903,9.788384685879327,-0.0071570436632610625,0.0023103027213331115,0.00750109481968622
7.88,0.3304986105928558,-0.07811404317852787,9.838443832143625,-0.0033546555026718185,-0.003193203913829687,-0.00039847914365170336
7.890000000000001,0.20249956977079417,0.07802685879110077,9.818324647424715,-0.002506096159488689,-0.007561586039378962,-0.0019261884629227586
7.9,0.3690099042666633,0.03591541745543981,9.921100031127416,-0.0029350460965401736,0.00683277431667137,0.0057768735939333895
7.91,0.35051889059575864,0.13985084580194276,9.881060390739934,0.006986564876234655,0.004008625008483544,0.001028914557405378
7.92,0.3548930393499425,0.13461180752106378,9.702200855793624,-0.00437204013722185,0.006630578138260657,0.0017389471837211848
7.930000000000001,0.23028913218805236,-0.027379610411743346,9.786654747033472,-0.00624015173867526,-0.00456934096093956,-0.006318725910317747
7.94,0.2452062112922866,0.20025902440555907,9.769289601586337,-0.010260144803082941,0.00194261092474565,-0.006189376859162736
7.95,0.41520411071996643,0.001958373588152861,9.806128181604738,-0.0037797264041537527,0.0001941981432388378,-0.0009394646194362644
7.96,0.3270480509961364,-0.07701348275272203,9.806292232019356,-0.0035672092066408546,0.007594645065308789,-0.0076332724587617464
7.97,0.3839925341356591,-0.05069118927284619,9.88003260030878,-0.007416830741752033,0.002289219537942685,-0.0031306648217531664
7.98,0.3309973989354532,-0.1805380084231535,9.827929403576936,-0.0033262388823425922,-0.005395180155729808,0.0016910059323848386
7.99,0.33037130723050406,0.12856152065994247,9.954315400625026,0.0011281593730656481,0.0005956155433672371,-0.002914784606605034
8.0,0.40231184577150847,0.12758095912350909,9.835570376519483,-0.003755148017056526,-0.0008154691928592514,0.004832699046182561
8.01,0.28522332752627344,-0.08124059510506568,9.706979137559527,0.007840796990682835,0.005556776565149155,0.002528686709479832
8.02,0.33345377296834355,-0.018230743070552474,9.750576325579813,0.004910880864192665,-0.005909679349436226,-0.0035688513729288038
8.03,0.2880387345581671,0.007648603529006208,9.87910468848781,0.0026219925285043246,-0.0005908043352421622,0.0016875318974317287
8.040000000000001,0.2895171493872428,-0.0768282441713691,9.612949808259318,0.004897325955119545,0.004120141422154129,-0.005454817550330987
8.05,0.2987986119920601,-0.14040816250169294,9.645144350228794,5.92215304927063e-05,-0.004604112909306929,-0.0038865901932004184
8.06,0.3405580635241277,-0.016828608302152947,9.807933664855026,-0.008554345025433098,0.0006680022117727419,-0.008923872845660161
8.07,0.28374189889678947,-0.025686354356739747,9.920760654222539,0.001970666194260887,0.006792238054913856,0.0026516805949025656
8.08,0.4217561537024772,-0.031072899279102013,9.963494251834584,0.0002594417891787999,0.00767224062701548,0.0016372284868478046
8.09,0.24898040397440932,0.01781728500807717,9.780597310357386,-0.004313716596434346,0.0006255322586557705,0.009798457502970748
8.1,0.30485203186241333,0.11436157268207937,9.933949442438305,-0.0054631941732115885,-0.006900619398673639,0.003074543236707696
8.11,0.28387550600511685,-0.024247417575338086,9.815322149172268,-0.0011202658398154343,-0.002660009377499261,-0.006295897101009198
8.120000000000001,0.43406390199674083,0.013635439897709028,9.622880202130812,-0.009750561189933723,-0.007282150194157103,0.0080746276266368
8.13,0.3332811885426853,0.05814964189959488,9.805680815622596,-4.4371215722388994e-05,-0.009811822410267188,0.005920429691593818
8.14,0.3993549606277331,0.044331434121019905,9.732381025045413,0.006174169835069872,0.00614616977841418,-0.002112656547419999
8.15,0.19721261583488425,-0.04915388195582736,9.91683770565733,-0.0013440530587128584,0.0006881393185404221,0.007005232539973419
8.16,0.33667097359902676,0.00771016984912287,9.80356896875746,-0.00277450509544317,-0.0037720662229035707,0.003478384341785793
8.17,0.38572638236130935,0.04380318561352427,9.653300427213223,0.0060462736692483065,-0.000263953471082787,0.0033521995390096964
8.18,0.32038706525242516,-0.09026810700086221,9.626684222690972,0.0005622338203701662,-0.001256223030522606,-0.004146390992429257
8.19,0.3982906658191768,0.10108312086372065,9.804132405110265,-0.005769299507234744,-0.003073830308852568,-0.004880295929342616
8.2,0.27091651310317927,0.11452711241712889,9.516223903424835,0.0014174126652971497,0.006087728837083935,0.001020046756854498
8.21,0.42429420250656485,-0.057822420435559505,9.744470165220651,-0.004603516698433354,0.004276885405129798,0.0014844074804985425
8.22,0.4947045415353626,0.015493601467853495,9.83437363908914,0.0024741301035589016,-0.0025968385554118118,0.005666882861592463
8.23,0.2810113586298489,0.051382260533682535,9.679808019513356,0.005641328490894775,-0.0009203357232921937,0.00359225923301462
8.24,0.27364346232981995,-0.04364913250630021,9.92592845882864,0.00550744576035834,-0.0023268611304426037,-0.00040619323817402353
8.25,0.4247991128391842,0.03852910765504756,9.949570785970083,0.00039895678601203287,-0.005489100791228988,0.002208312557772037
8.26,0.4341382883010363,0.013060450103373233,9.684645885669765,0.005112614077997036,-0.0007194300810892389,0.0016992502717613387
8.27,0.26518734908328434,-0.11743345421110407,9.77088469909642,0.006992903979590882,-0.00202575937401474,0.0018013249881350182
8.28,0.27264431443711784,0.03673290527828465,9.926013178158575,-0.0028490610083483693,-0.0029855314953470707,0.0017094663073639361
8.290000000000001,0.2829590748782898,-0.08801139330168287,9.806493095889389,0.0012068478365664368,0.0027753491976384896,0.0003807937481222468
8.3,0.1971878630175531,0.07513622813296378,9.639312570628118,0.002325714086495773,0.008327594860356844,0.005299552026527887
8.31,0.2304932863244173,-0.053696886010711105,9.789451471772278,0.001691908493722442,0.002524534991683353,-0.0014945100675210128
8.32,0.22289519797521007,-0.012902834692891605,9.7042986013245,-0.0007959454556896454,0.002462304653357328,0.0004382511235792952
8.33,0.2410431518089253,0.109782313075726,9.939633747571106,0.003965093381157595,0.006335365017230126,-0.0005088298049688219
8.34,0.298932145459121,0.03971053172230762,9.87936185131895,-0.01004608269558502,0.010170944628953058,-0.0032624721653562593
8.35,0.3196835775191459,-0.08635791356596363,9.768999166568124,0.0009758085154933981,0.0036374614336348687,0.007044867694215414
8.36,0.42422538514444325,-0.0811933256639267,9.823707761503604,0.009030171042850633,-0.0018193656888373002,0.005948448834714637
8.370000000000001,0.21955545490372955,-0.047944223089898035,9.649675410763301,0.000989899566874323,0.01371601835106188,0.0055022236213001985
8.38,0.377407489429721,0.03157152666853329,9.716196704973086,-0.0008873704420615786,-0.003965364085974479,-0.013132948622569758
8.39,0.28077999765398254,0.02866398519462145,9.993043502523099,0.0033733796494006913,0.00504224378995377,0.0037273022219997897
8.4,0.2931789056181689,-0.06744818437302953,9.81307175830956,-0.01176707223684605,-0.00629005494844733,0.002404117389483935
8.41,0.3503579498275198,-0.09337675884914873,9.918260296574964,0.008927618677403956,-0.00027776901361351524,0.005457591282958415
8.42,0.2057905089670765,0.02252667240686674,9.834491570608963,-0.005172034117192486,0.0010356401632616193,-0.0013733006547825208
8.43,0.32543642410795814,-0.014548805263212955,9.964363821163543,0.005937947369154534,-0.0026991816546819147,0.008385063419324698
8.44,0.30739468958490895,0.172577270995819,9.566789496088093,-0.001538562418099939,-0.0053493149807608345,-0.00518153658868959
8.45,0.33270897866746607,0.002928292525046316,9.784063889917718,-0.0031121356617392925,0.0018528366396135824,-0.003049899875205614
8.46,0.3156802310949921,0.145140226216022,10.004023797545965,-0.00410238687825486,0.004449040257672031,-0.016056093052192327
8.47,0.4882041115398549,-0.0936306878483472,9.921390812267276,-0.0021494081821782506,-0.006671190738675716,-0.004342772191719108
8.48,0.23999376241417472,-0.12585703516493657,9.965694671054822,0.0012187496179454308,-0.0010261632251752255,-0.0014778298223521685
8.49,0.24776556691870416,-0.08960681060204277,9.805838248761221,0.005947544394821325,-6.809079873210137e-05,0.00903028436803456
8.5,0.2396259460420143,0.0951303825162773,9.742197230150394,0.0035609588900038253,-0.004833548607661545,0.00967045985142427
8.51,0.24427038744900004,0.14048812717548273,9.683390264837447,0.0013905267224550582,0.009358739296199396,-0.0013304777151637954
8.52,0.23694846092888283,-0.06257435631621072,9.675018629000618,0.0013611587370396337,0.00216057082662537,-0.000840568871088598
8.53,0.3822911343573191,-0.03684528238076461,9.903497267465022,0.00635959997793443,0.009662910042521546,-0.011467131393082508
8.540000000000001,0.40004004040553054,-0.09351847281699999,9.868235326050502,0.004074091874957556,-0.004472519049255926,-0.01296404226934887
8.55,0.2399693950258944,-0.14493118776947098,9.798661186080356,0.0025850912823209638,0.0025963674874993938,0.003400635875309421
8.56,0.21826956121927382,0.05747293582213038,9.867632878582201,0.0018551393895176232,0.004375126116418376,-0.0030152440067212224
8.57,0.3217996720238763,0.01784162423697305,9.823744211086247,0.001316671945774592,0.003490831342142846,0.0067647806127968816
8.58,0.23913651764157282,0.0008390386139100355,9.922116124167937,0.00021922736376066884,-0.0010689778264875492,-0.00027619447258832677
8.59,0.3331763548241655,-0.1120045229730704,9.92097241058898,-0.005967965527230445,0.00384812142860646,-0.0072865845339918625
8.6,0.29800261516374266,0.13119653454629285,9.678745107941818,0.001954820515186813,0.00042287111129727105,-0.007754862827086132
8.61,0.15973572558473215,-0.04026853904395785,9.839487518496375,-0.00746973050865898,-0.0042684573648988115,-0.0017197098874763479
8.620000000000001,0.4040216707020855,0.042690113985318065,9.60638598997671,0.007402396408257072,-0.0005536758316439955,0.002732434678359579
8.63,0.4231169881029293,-0.11636491241957796,9.82261248857087,0.006333026886390529,0.005365836455762987,-3.5298564353236194e-05
8.64,0.2296487198516968,-0.015242015169602989,9.87916651356419,-0.003527626377733597,0.0024942727984717636,-0.0034278590926841
8.65,0.24688025363419794,0.02330995649908671,9.64900367862482,0.009074023262612408,0.004338992497176197,0.0010434815204183618
8.66,0.2999896968577929,0.026166017444264607,9.756674471744699,0.002563358830309424,0.000891432447567988,-0.001841648149568117
8.67,0.30310062113118436,0.012371883458930007,9.807793165266375,0.00249304964119792,-0.0012144595015859366,0.009683442162187784
8.68,0.3282507585704823,0.039561799363901806,9.834719789964806,-0.0034635170013424753,0.0025439871263162072,-0.003913632465170886
8.69,0.4356062465054331,-0.0904416364826369,9.77321755561302,-0.003965820667666894,-0.008930449320912477,0.0020573755238654963
8.700000000000001,0.2598563010070186,0.015789808435172803,9.665975421711439,-0.0026623295552262944,0.005416947594081595,0.00206647696308427
8.71,0.20937002593372123,0.00910061467842219,9.80016913576969,0.0007411232901465019,-0.007052493869921232,0.002924526524339673
8.72,0.16210952536723894,0.018533814735604868,9.608380771967083,-0.003310730759597251,-0.00716419348075689,0.0021525673976440893
8.73,0.21320145168031018,0.005787617385534543,9.778733027598141,-0.006291463102620554,-0.010455623501845123,0.006485672274015866
8.74,0.2682460228037914,-0.1018570219130718,9.753685166356368,-0.0028036600142799972,-0.008722440292313954,-0.004812959053382038
8.75,0.41368067129991637,-0.1054239801687179,9.79053811918727,-0.003605257985358386,0.005721136451469886,-0.008314838800413192
8.76,0.22792653704405091,-0.17714145487076413,9.739531362702918,-0.006694531408746623,0.004902014974428671,-0.0022486639778925618
8.77,0.28645741434749095,0.06540276078762382,9.625728299421255,0.0011397636900567385,-0.002454626650339275,0.010102850784109938
8.78,0.2664590236193726,0.0662126007788159,9.762688801529258,-0.0064484757796019814,0.0014105783363912113,0.007514782936287077
8.790000000000001,0.3620623354483391,0.06748402329776963,9.918348415004477,-0.0018749300513663308,-0.003768870277045943,0.0038355151540857076
8.8,0.4683630284281624,0.024543196996916143,9.958025296478656,0.005020324051381887,-0.003999518424956513,0.007310982969527186
8.81,0.2229560371696133,-0.17064953741744887,10.09937011344631,0.0002561054607394417,0.0025438064806413345,0.007441405952697562
8.82,0.22548703344717166,-0.08213683934282129,10.009648049007719,0.003843901128941995,-1.2458770908706594e-06,-0.003357960532587972
8.83,0.3473912554023628,0.013633233407448955,9.663017448799827,0.013542528253411746,-0.003945080890266394,0.0015906454699013577
8.84,0.31762544868107,0.010841440223343634,9.75763748784728,0.0025499469368381474,0.002786547343091383,0.010640084659532508
8.85,0.41002600907362147,-0.017819857052161697,9.803915723819467,0.00023785197544466026,-0.00047532967931817146,0.007761390288037707
8.86,0.3082185219188485,0.029513376232659736,9.796382819891955,-0.0006794207303334577,0.004380121690095509,0.0009719491929831961
8.870000000000001,0.23197529582733326,0.0009321366148196452,9.814993999587546,0.0046048745807858,0.0036272413854335096,-0.0020155604970089032
8.88,0.30718499880882655,0.009661637244108935,10.095560970585707,-0.00922006310829185,-0.008369543572720892,-0.009201892955479072
8.89,0.3478424026759356,-0.05112522662656129,9.676803814504911,-0.0004559832363062546,-0.011763127850271511,-0.0007999516018719108
8.9,0.3239977505611261,0.07856087888972722,9.721026263654284,0.0006688367353549629,0.004281132222986258,0.0025218983633009456
8.91,0.29815371569838256,-0.034461728694430725,10.00390911161069,0.004509425341039061,0.002069525621176961,-0.001617707700292074
8.92,0.34211794417922997,-0.10645192664165011,9.732732238829817,-0.0005299147195703827,-0.004258219811321264,0.0011404326416947909
8.93,0.34953935205783,-0.06167992102549829,9.853879678040286,-0.007920977751882684,0.005330177270031536,-0.004782969433159237
8.94,0.36577972127351166,-0.027877295308958425,9.930808884384184,0.0007692266083899221,0.00160739167653794,0.005813614598271888
8.950000000000001,0.3063146528757214,0.07952022306950773,9.865029882007843,-0.00840581679051662,-0.0016272960145134391,0.002749239178399966
8.96,0.2402588393832009,-0.003381439874783443,9.829661875972299,0.008755917565060644,-0.00019413863617222482,-0.0029717285400474103
8.97,0.2645753700781353,-0.014891857517251922,9.919283292363277,0.010134943781000246,0.0040128033592739315,0.0068681663592259036
8.98,0.34856854860756314,-0.09989307398101019,9.699481773219404,-0.0060477036384981265,0.002605645520598055,-0.005416626304565201
8.99,0.1859021018541401,0.06283860718636611,9.747086424460479,-0.006525220015714586,0.002909400316698133,0.0032592369945917445
9.0,0.27995951396724633,-0.05215617232187086,9.870926510615819,-0.002410059590629842,0.007160186142787527,-0.0018450989116970283
9.01,0.21820680882957336,-0.008002228715306875,9.558317288894289,-0.0013499050695207058,-0.00018019387497180938,-0.0012147138832615254
9.02,0.25118133639937446,0.11841464615054918,9.976640058801362,0.006386310636753074,-0.005208516677420271,-0.0037717159538173395
9.03,0.35036530986988174,0.04070106648394436,9.843057085023734,-0.005957037734385653,0.009417585364976581,-0.0016225966016969468
9.040000000000001,0.26258407150559443,-0.13026032381721395,9.825013810333738,-0.0038425828348988395,-0.0014365384393316561,0.0042452805062120355
9.05,0.25021763138392933,-0.14156081890819777,9.610988454683072,0.0033188273599145937,-0.002875894774988228,-0.001997930866955133
9.06,0.1369203553450112,-0.005144836009539684,9.652256904952031,-0.007277352255460906,0.0006936166057946722,0.006411587179775449
9.07,0.30461484998197175,-0.0970192491899844,9.758819960283896,-0.0029088858100425165,0.003179065152032463,-0.0029105649724065026
9.08,0.29575859761293616,0.051883739810639824,9.903541582035471,-0.005478245244621882,0.0034013990139723656,0.011738246937940762
9.09,0.41638512111543124,0.0033810451971983354,9.55745607853617,0.002717118046438118,-0.002069280934299717,-0.001746829799415601
9.1,0.2179069476537861,0.013230781521909039,9.901253776093283,0.009545926947158249,0.0015349000991807644,-0.0038295801030998034
9.11,0.259265280294948,-0.05653945453138825,9.763446241106996,-0.00031112531686540977,0.0010757023143077435,0.002346068507996712
9.120000000000001,0.2608875822071617,0.13931069242293645,9.779839183271001,0.00756019407047016,0.0063794924704785585,0.0009911938824000842
9.13,0.36633637048092904,0.22740749824083675,9.837081153002897,-0.00020747606212941877,0.0019799287138438097,-0.003041167461541747
9.14,0.2317192746249228,-0.022286777900537177,9.838968068541568,0.0049000467182225725,-0.0010173589929864373,0.002454506545585365
9.15,0.2608670382862081,0.028243139873200075,9.721158569207608,0.008566267851780014,0.0027640323526344317,0.0011535158301284125
9.16,0.2863790272695651,0.007793387445145007,9.88163921061626,-0.002586937285774249,-0.00039037028757740483,-0.005680252989498381
9.17,0.2518776192388101,-0.020774949075285494,9.528322223212427,0.0026660007337827745,-0.010671807142408354,0.004842032827603466
9.18,0.200435377110956,-0.06656563741862373,9.75259973361188,0.0036584177965813224,0.0004909096275660035,-0.002665084471069143
9.19,0.2508780379587023,-0.08679743899843817,9.825091811581228,-8.129961175138349e-05,-0.008870150133701947,0.004119003016322255
