ts,ax,ay,az,gx,gy,gz
0.0,0.7841476230513724,0.12616280430928145,9.71798978042087,-0.009791836796278255,-0.0036401882842715745,-0.007387915922264494
0.01,0.8514852396530316,0.04769460514963515,9.75780196473043,0.00831630833035769,0.003447161416985427,-0.0031243335470112626
0.02,0.7734906422330884,-0.126433332969633,9.587900897752109,0.0040223957143388864,-0.013986919635739425,-0.005514409016053768
0.03,0.7600252540368896,-0.06146780669610895,9.952210266634028,0.00363802213523199,-0.005792010211320486,-0.003247689536713777
0.04,0.8219413347526856,0.08166304181444499,9.87722242820458,0.004704746667983744,0.0019408064506579099,-0.006177942794076543
0.05,0.8331880678926772,-0.03797089946787561,9.56454386920595,-0.0018272038946005797,-0.0031232434696451257,-0.0034643954931589463
0.06,0.8215184956091526,0.007033587659234798,9.926001316549774,-0.0029848140367588344,0.006132670542015252,-0.003999447479442165
0.07,0.9714683306763405,-0.04100417945144343,9.779684870627467,0.0059028201593429265,0.004310893480783613,0.00481440810284572
0.08,0.8411518653265694,0.06957284078808994,9.760219803383979,0.002630838091164473,0.0026585319909696653,0.0010551419682034774
0.09,0.9144998895086198,0.04240452593635618,9.823598391959523,-0.0026019537608144706,0.007903834988448002,-0.002058069535455555
0.1,1.0162625547340882,-0.05068001714510383,9.758176651171755,-0.0005346847996818379,0.003345373271822046,0.002332222984718664
0.11,0.7998188672349231,0.06868097638605604,9.803266148520196,-0.006383939089690622,-0.0008803119417695936,-0.0009821066509425294
0.12,0.8495784865521765,0.07316881720314947,9.684623605740756,0.006527671059823247,0.002369159465135031,0.008824034016518245
0.13,0.9030381440198735,0.0480931412830813,9.762477262758669,-0.00043553310449343755,-0.0002615885595642325,-0.0004099368498301124
0.14,0.8474327996416505,0.01944215823844903,9.72036012946177,0.0022717114404988523,0.013714537675861017,0.000525468099126229
0.15,0.8154856941926336,0.29641945706423267,9.86336401187003,-0.004442784253609503,0.0016382372703518163,-0.0033513987248388454
0.16,1.025122452628269,-0.11281585064776722,9.792931454182222,-0.002744052579904075,0.0009635219298579961,0.009104370590700243
0.17,0.9334929910119624,-0.0227128443917753,9.797394982571657,-0.0014407300288832873,0.0015077628971899547,-0.00010091601697698466
0.18,0.6694741165133975,0.000687196633037808,9.68997302881973,0.003353426288282878,-0.01142422140863684,-0.0014122434550527109
0.19,0.9461796471725357,0.10181757039908798,9.888488262672361,-0.0006373174720819905,0.001253154680004456,0.0038484042007430664
0.2,0.9656012967711066,-0.020597169955554367,9.860059472488613,0.006852137457768034,0.0005096451869879275,0.007683202687654753
0.21,0.9331835355436116,0.09199126092629746,9.947110199841367,0.004035167111834442,0.00570982769730255,0.0021329465584634996
0.22,0.8975886246325343,-0.04492843368750875,9.84768595326245,0.0016961247799446306,0.006909118801757971,0.0022169370325019837
0.23,0.9615911209543065,0.03792801573377272,9.797041194478766,0.002640997842824636,-0.004570112802061951,3.856999924245605e-05
0.24,0.9081034626346074,0.07083442043817202,9.880768921886986,-0.0016202308296559848,0.004774175467644546,0.0027157494938104586
0.25,0.8837686979546252,-0.047722189733157595,9.720913163057812,0.0031845651906895717,-0.001126107458222176,-0.0020521777669549822
0.26,0.8481794090328211,0.06341627584010245,9.754966819815893,0.0015304595074850048,0.006072940030015114,-0.00453793765219302
0.27,0.7516946821337895,0.11658842461280308,9.74194842340543,-0.0023554930630503325,0.00986993024680326,-0.005163378687441823
0.28,0.727579442355105,-0.005976508763315977,9.956115727979412,0.00573619280043662,-0.008354403482878204,-0.0029838910534895698
0.29,0.8992079988469996,-0.07676500483483939,9.795421661278025,0.00406726253602384,-0.002529371199594111,-0.0017939617401044512
0.3,0.8977488136022534,-0.022651713890663738,9.82088825279099,-0.008478820600684061,-0.004595886023031083,-0.007730941472223688
0.31,0.8338994157750214,-0.005008613881710378,9.73147552875267,-0.006430828287472073,0.003630161708111165,-0.006481070701576255
0.32,0.7687543275828682,0.07896633338518445,9.840823692190419,0.001439676990713687,-0.0005759961710967465,-0.005457414659820655
0.33,0.7468561823720398,-0.0696100881866599,9.803183150710163,-0.005905129217260852,0.0029158340970865007,0.0032942337455745497
0.34,0.8082515443867754,0.053556234450204125,9.97099917896705,0.005951908070494674,-0.0008444339578176442,-0.0023554074935919016
0.35000000000000003,0.8933451011912529,0.046954859325333026,9.79311563754845,-0.009155971745173842,-6.676527658588656e-05,-0.00697438809214218
0.36,1.016234402012193,0.04024943477153701,9.886471957601348,-0.002868831052261773,-0.001681679169379422,-0.005136207369092095
0.37,0.8351682091206871,0.09878103012383464,9.691061417407589,0.006903530313596608,0.012419389791720192,0.007303192599031671
0.38,0.860115154239868,0.023369549842816514,9.816810656619765,0.007101689047015897,0.0023769336008009696,0.004782501690357536
0.39,0.9271348598655071,-0.04258027107430183,9.84984628945045,0.004013589864963514,-0.002060119790304481,0.006129175863806793
0.4,0.8319174750044372,-0.002791953795990414,9.694168779575765,-0.0028353997125325834,0.005898256517379961,0.0043344015856000605
0.41000000000000003,0.8664856925150914,0.005649796110659609,9.834820390692778,-0.0009033034413421479,-0.005745016212097609,0.004024199204676312
0.42,0.902706403911398,-0.038117542162436124,9.674594492594666,-0.0046344593305787055,0.002214337812932046,0.0017188193450823064
0.43,0.9250708285711609,-0.11477240099962144,9.542293838178015,0.0006922507388714261,0.0013015750084544029,-0.0012856504652359315
0.44,0.841199742646998,0.010593202444599787,9.828933936112376,-0.004358343554234962,0.002735560766719698,0.010003821698923124
0.45,0.7983805653542031,0.020591959627180755,9.926704785183565,0.00505985738859757,0.00346551492022336,-0.0022881267794376214
0.46,0.8531142715363546,-0.00296607850303241,9.55340052083927,0.013976081048226771,0.0027691831924068627,0.001595336134109711
0.47000000000000003,0.7009588321998801,0.0043276545297083234,9.896148734114865,0.0039828277708757135,-0.004977281473216768,0.0011974014318066467
0.48,0.8601962473552144,-0.0714176007836239,9.939340990400968,0.004266446018680884,0.00042948611423073156,-0.007673306890431302
0.49,0.9060062372847272,-0.19161780031080802,9.563708442357827,0.0037950935792086748,-0.001237260997203164,0.006197302959756945
0.5,0.9724688839933892,-0.02031950860578565,9.79269893148459,-0.0001650956206884633,-0.004138859781041901,0.0009695237062318651
0.51,0.9105350955474967,-0.10682398476423557,9.657094736748133,0.0006058345041382486,0.004789743272533378,0.0023264746152465814
0.52,0.6312326615934154,0.029310018742743825,10.04455096452714,-0.0036266394835166482,0.0028494586760262003,0.004584414227241192
0.53,0.9478101499569023,-0.08552262412136638,9.816063872542957,-0.003934422149086527,0.0009919962279568884,-0.005340153557368874
0.54,0.9537747188635792,-0.003491258756649452,9.60368867667833,0.007259234798767834,0.005059666780345849,-0.00216279797739746
0.55,0.7627179050018327,-0.023552514600447758,9.917963409574323,-0.0025087800493821845,-0.0002119704546396459,-0.00024246933216374438
0.56,0.8042681346554605,-0.05898176884360469,9.76006991052656,-0.0010311277966286846,-0.00020972399731290718,-0.005310199053167262
0.5700000000000001,0.9513913729709773,0.08020272515802561,9.80962636456318,-0.005461808094768504,-0.005229380369307599,0.0010482376454719604
0.58,0.8406579695482153,-0.09086005185912471,9.678377882432963,0.005378483273084727,0.010915475809979617,0.007993379326562971
0.59,0.7891564177397092,-0.18834032358090555,9.896398349272589,-0.004010636349785966,0.006002449698809073,0.0007609465799195506
0.6,0.7759881350541779,-0.09755794634457282,9.869569056759424,0.002852603464628727,0.008057380293158303,0.006426575459648032
0.61,1.046816554224265,0.12218914573048395,9.900366920949336,-0.003028675316510236,-0.0015084549968069874,-0.00041869701894501
0.62,0.89899094050177,-0.021521026115264453,9.74948224002011,0.0008861151479876263,0.0021108467861505127,0.0076135963242570225
0.63,0.8136472221604316,0.0868121094153726,9.697376360770729,-0.0005588720056671424,-0.0018477112237080715,0.0008854292997296254
0.64,0.9501669608669299,-0.0012042372597807843,9.908376650892704,-0.002774151277730772,0.007679716858921384,-0.005586918997310404
0.65,0.8285992938695901,0.0962694410197491,9.929595585986522,-0.010444740368172698,-0.004269881468106615,-0.010387738209283815
0.66,0.9326705341390368,-0.06578542011652849,9.586219428641014,0.0016908368392967118,-0.0063303702650606124,0.010434574459278563
0.67,0.8821952956916275,0.022777466995211673,9.847883573702072,0.0010746802141777818,-0.0015492251712827016,-0.006050245063591816
0.68,0.8085433976556212,0.06371026760240607,9.837109863309234,0.0009606417802648378,0.00884609331162359,-0.009525087082450217
0.6900000000000001,0.8754359605222604,-0.10130016709653532,9.808037583416397,0.004036234834678662,-0.004205278463491579,0.005715905916361407
0.7000000000000001,0.8786059317997783,-0.08235355522339072,9.882645599932854,-0.0038737381879838744,0.007615553756001448,0.0029722836186829283
0.71,0.899509227279241,-0.02004768081430936,9.51192537161883,-0.005095563394866134,-0.004725804674484473,-0.001098650720824237
0.72,0.9656509505307234,0.038169497584307044,10.011070938422861,-0.0052710053661425265,-0.008029743241139047,0.006157736517857115
0.73,1.0122581507981034,-0.06349701383639732,10.089300938086437,-0.009691141237956459,0.008086196382531797,-0.0021242734525499787
0.74,0.8681351716038848,0.09113013405795922,9.83712343001776,0.00227912836901657,0.0115373125919945,0.0034172711714536242
0.75,0.682534067044658,0.07623622083073459,9.867902657406523,-0.0032370536264920125,0.00892101251131006,-0.009227404331628674
0.76,0.9052383022825585,-0.005015016995603397,9.716548129004186,0.0011156356591432018,0.00643647877758278,-0.0023430214450175842
0.77,0.8141752248339029,0.03572094035988906,9.89521069431003,-0.005215597109935308,-0.006219770667190578,-0.0004939536013581716
0.78,0.6996669400906163,0.0584144924748637,9.803385005627998,-0.009968353452551912,-0.009581767277057476,-0.003237814199385509
0.79,0.8901483084966778,0.06816636580072334,9.780251552007472,-0.0022356497879095754,0.001595876830588442,-0.001638942245550019
0.8,0.869971995250969,0.04015296099262189,9.782757845866204,-0.003445814240703447,0.006282712540976446,0.0017730436322998108
0.81,0.7703025595150144,-0.0466026707813378,9.696319448608389,0.009290801369643227,-9.038433765141238e-05,-0.00822319586983802
0.8200000000000001,0.739797164901453,-0.13179126735175462,9.963027158250119,-0.0034823826034740477,-0.005960637963687094,0.0006636898246046764
0.8300000000000001,0.9462612171921854,0.01273796495262896,10.002167512805496,0.0008012779398075968,-0.00614872174523716,-0.001147795337330665
0.84,0.8750113636112723,0.09980068255158024,9.70954202450391,0.0021933717650312,-0.00496245560933069,0.01614188413627428
0.85,0.7711628292962027,0.10644308644277166,9.858009056104528,-0.0025129275665943624,-0.0009681483938679416,-0.0034053040031229247
0.86,0.8873663852526488,0.02550469650396459,9.903167607091646,-0.006961276810190404,-0.00389760396129396,-0.0027607561872260516
0.87,0.8006659210740106,-0.03647097549255099,9.680901116522959,0.00192671934514976,0.00046123777073158546,-0.006068820372293566
0.88,0.8777845505375556,0.07381293755313899,9.741982086369156,0.002280741129966163,0.0003790697427382489,0.006096608532523436
0.89,0.8592483018558026,-0.08784757550271577,9.73481390633171,0.010120616233544615,0.003261482029713738,0.0034590576252753057
0.9,0.6288833848259221,-0.049346818579745655,9.948439870749194,-0.003855613608385254,-0.000697807439960468,-0.012425129084856752
0.91,0.8426197273086491,-0.11451836913195955,9.91584149865125,-0.002390947330005282,0.0025189504252077356,0.008021289801471541
0.92,0.8205486727454178,0.07982783111514356,9.890430133551892,-0.0012765161877565986,-0.0014228674572586237,-0.0021341881854269012
0.93,0.7745621943990315,-0.13090378939211297,9.75977077324793,-0.004555663210829769,-0.004821544167631276,-0.004396747562277448
0.9400000000000001,0.7325805401180396,0.0326654453681898,9.847673969958542,0.006287452445646664,-0.0009734387762243349,-0.0056768892910080615
0.9500000000000001,0.8162143696174262,0.18607086737352518,9.944452825629932,-0.005140952277358497,-0.009686585947293928,-0.0017998383481684424
0.96,0.8053090721326749,0.03212028695258934,9.980702055674858,-0.003269567596519227,0.0008343814827371305,0.003720797284589291
0.97,0.8855523689918504,-0.07752109147430088,9.712915409434062,-0.004031238496766965,-0.0011431985709832763,0.005244803489169764
0.98,0.8217372998534395,-0.033448875275411655,9.557116781395539,-0.003483820444379658,-0.006228487132257499,0.002107722498385415
0.99,0.8403465164909187,-0.12076503090800707,9.669464589470158,0.00570591409291867,0.005411298828072474,-0.0035283120428646346
1.0,0.8593417779797519,-0.07159500101742108,9.744440076832582,-0.0054294260705186614,-0.0012562551535894196,0.00013083925944135807
1.01,0.7959634059022792,-0.057171222586541254,9.838253137790845,-9.690039123787586e-05,-0.002888870299905787,0.005867159525298705
1.02,0.7532748863582434,-0.06666405590666705,9.869691008280084,0.006663868641036862,-0.0068200306655498266,-0.004795795746804269
1.03,1.0099642979974837,0.010958807309822221,9.798776439094482,-0.0011985700282925555,-0.0005700442629010274,0.0024215680624367205
1.04,0.8265773383242525,-0.22246311335553098,9.85119221197347,-0.0019270441705768865,-0.0010868256624683864,-0.011778521856344662
1.05,0.8158987763301565,-0.0994100265671464,9.884987515312615,0.006063349840665909,-0.00895998249242315,-0.008950096779821401
1.06,0.9456796659565894,0.04590746417448817,9.73436140402792,-0.00797566689253452,-0.004381352805602422,0.005069090345154768
1.07,0.9834745973558242,0.1679454910293112,9.756582444063172,0.005062904711696862,-0.0027312632050627643,-0.007589939957357029
1.08,0.9480617544105046,0.03446297089982545,9.87287332352666,0.0016921264069042644,-0.0016993834068235645,0.00418744632659087
1.09,0.80107946750468,-0.06706562790159686,9.855428636559413,-0.0062566337650424055,-0.0015612170198307687,0.0035360978668547457
1.1,0.8599879005111803,0.0679661389319257,9.648872332057831,0.0046847729634239554,0.007017025552976306,0.0070855855778857915
1.11,0.8788677803001925,0.08749567159310395,9.898727724172627,-0.0007884868974511761,0.004730264693593234,0.004988208999793101
1.12,1.0109491000616577,-0.06018268387520188,9.82142665429719,-0.0061703941230966935,0.003008031938955634,-0.001111274748237992
1.1300000000000001,0.8655177779252432,-0.0687960424662193,9.6816942881686,0.0032034812783160644,0.0024262690773597323,0.005287149017393375
1.1400000000000001,0.8689639205048466,0.1290182757283469,9.780639498076779,0.003162453200655619,-0.0014519829894328211,0.0009964370744432976
1.1500000000000001,0.750640786489769,-0.08640015282594239,9.779588136688462,-0.004146489604486505,0.006447075506299221,0.0045196948092964045
1.16,0.7311613457926472,0.1402349193108256,9.698851819328262,-0.0063548373004158,0.001685313264127715,0.007542989148071676
1.17,0.9398288745646051,0.04497585130067602,9.822069721409166,0.003771882649445798,0.0022668017432719532,0.0032553316171636793
1.18,0.859035448858023,0.10274441058374847,9.840447043447606,0.0006970108625156945,-0.003654623669625491,-0.00199931728233756
1.19,0.8670438842138848,0.08109504438349668,9.954726711215073,-0.003410887149060674,0.00197783689232227,0.006368962642048451
1.2,0.9170398413358936,0.08369344692223356,9.61041238544185,0.00557642548112545,-0.005712899169738347,-0.004282827989281348
1.21,0.899226017091185,-0.09161095302893134,9.821788265312692,-0.0028909362782046557,0.0010176362182621225,-0.0044424493761619525
1.22,0.8886735746371671,0.05792241170976266,9.750963238015224,0.004346281812322671,-0.006373476180285862,0.003962424634384999
1.23,0.8816918950875531,0.10155337430842104,9.765585948556366,0.002810993628084305,-0.0063929527632818365,-0.0004987563421054145
1.24,0.8417999255632727,-0.019203702843099635,10.051890583006825,-0.0024712985251188115,-0.005368056076636771,0.0033058734687886567
1.25,0.8473197849260342,-0.15904557524465562,9.930833310746188,0.0013847227443032168,-0.0037691550590376187,0.008612111889718025
1.26,0.903759183216021,-0.10488451104075976,9.945618872192837,-0.001383334491881668,-0.004344328316541333,0.0008024271710675851
1.27,0.7552875453927924,-0.1261508828503529,9.839337164907372,0.00795465167101909,-0.005565280282718746,0.0006071572728762889
1.28,0.746209523323851,-0.030636242223962457,9.821545174539846,-0.0009808733116152826,0.001564777828824874,-0.004580085652414141
1.29,0.8366611826282669,-0.11196694146111508,9.668447379865178,0.002139744208239152,0.0016774101241958323,0.004120443792824901
1.3,0.8419374551695924,-0.05023473365597042,10.012100418448838,0.0021929037560415297,0.00456947445592484,0.002060491857081715
1.31,0.8878440786588389,0.16196701320531454,9.691601411564603,0.004769570467470543,0.003765203851941882,0.002398264546781333
1.32,0.8119829333771776,0.06743859967326413,9.857656432228353,0.002927136521294845,0.0017250777132155125,-0.003350626696564807
1.33,0.7674124952281938,0.049405684025453665,9.760255446658679,0.0005342632828916114,-0.002731115519230976,0.0026065392228129636
1.34,0.8776638453075009,0.09069347506601538,9.765213556940752,-0.011494797754624435,-0.0015719075431691698,-0.006095217522668747
1.35,0.9371275579575046,-0.10283628100379083,9.63501415947745,-0.0001074264759252859,-0.004527987805971823,0.008566374400721097
1.36,0.8584791572744979,-0.07543019950342246,9.84086731572737,-0.0057778220137026225,-0.002077014711890566,0.007646130590581252
1.37,0.7128338673839919,0.008261890469339154,9.586981323908782,0.005753337386197473,0.005627369101250893,-0.008130732829474255
1.3800000000000001,0.8510692407052721,-0.053380533967352754,9.511019149290076,-0.001046063918491481,-0.0049469420166384425,0.002170173420069911
1.3900000000000001,0.6743878145108533,-0.029735534371486034,9.73832902658098,0.0035153030816417307,0.006211777600855272,0.0002744676798852631
1.4000000000000001,0.8254842642658387,0.04966559460986208,9.858703190136367,-0.003107649458920484,-0.0034291650029698475,3.1803132213208006e-05
1.41,0.6678604099342166,0.075489088187707,9.66741579961957,0.0022186412142026963,0.0035745380847069753,0.001307727989652042
1.42,0.7941022986696182,0.04292644147412439,9.569976489604514,-0.005847472651691634,0.0007262483580136002,0.0017697035976642803
1.43,0.8692662717043569,0.09194120755938495,10.026445712844565,-0.011939299657051108,0.0010045496546377435,-5.0334570112944785e-05
1.44,0.805416358418386,-0.21296554635216527,10.051208454379413,0.0037437168523037595,-0.003830591700182571,-0.000439876831517434
1.45,0.9200169171197563,0.16129269285111048,9.886949676746314,-0.0015311434292933968,0.0007454064193250324,-0.004440409857129067
1.46,0.8455111028070923,0.0653502164599345,9.760219574679509,0.004172739112188364,-0.007266360055910062,0.002204113235838595
1.47,0.73796000471775,-0.028513770517199992,9.86850253549872,0.012943073748237135,-0.0010183642314362759,0.005879505321541695
1.48,0.8997698537350449,-0.11813046326244321,9.884813747821783,-0.00221096512252155,0.007687309873789434,-0.0009288949263192309
1.49,0.8827191971184557,-0.0140485474876111,9.8736967159521,0.0005005099007607027,0.0005335092143041464,-0.006142026415459067
1.5,0.92934951294026,-0.06373894738359154,9.895894116071549,0.0027842188693452045,-0.00028275611154397913,-0.0008159908917854075
1.51,0.884084661653653,0.09687860015134475,9.875243341000372,-0.009997639421213013,0.00829123167118187,0.011396049425418555
1.52,0.8647585140441333,0.0543395355019221,9.76449412414059,-0.012752538888530392,0.0006304781865987514,0.0007503998587986741
1.53,0.7475916798993223,-0.05162835047638086,9.813543770847902,0.008943706416604247,-0.0035560254573889505,0.0071812587209355355
1.54,0.8919427475541521,-0.11202180387554143,9.89978927380068,-0.004157959171330832,-0.0003402171842410336,0.005224383556910518
1.55,0.8150314319080103,-0.019813404950594433,9.85698693451857,0.0025588184737696464,0.00024037453017052902,0.001522829855868977
1.56,0.8910888449253295,0.08028788581744807,9.91382043315254,0.005542801077060748,-0.000501888764059764,0.001771060606699404
1.57,1.0048717863789558,0.043669219323052844,9.703006768368775,0.006403389494401714,0.0004480707460716226,-0.0022608558557207685
1.58,0.9228573512909379,-0.11225520113062633,9.843215866001769,0.0035830434119058538,0.00606394037127807,0.00602262403866282
1.59,0.8489758195424948,-0.042034572826230236,9.709554411565106,0.0034897557649595464,0.00787717086977346,0.0008700457774122732
1.6,0.8318931472515594,0.0784009268655563,9.815343788158529,-0.00231802886262308,-0.006927832093170683,-0.004925612492501213
1.61,0.7924615711152196,-0.010540866566708027,9.725496574300033,0.0023299578030188347,0.002334208137876787,0.007250542342558381
1.62,0.6398937613760589,-0.004139277877250634,9.771177930969289,0.0033056677350369163,0.0021179589018791765,-0.0028074780943269013
1.6300000000000001,0.829299715731799,0.1511659257351101,9.917011357462421,0.005915421143309463,0.012107370553873016,-0.001588977511132194
1.6400000000000001,0.7843308674290823,-0.0854268402560524,9.874648786416863,-0.0036855463751764863,-0.0033687666891754693,0.008232619697849003
1.6500000000000001,0.8510353779518002,0.08990328651105024,9.687327215058522,0.003788721083381921,0.0004235227238982928,0.0028434709832439774
1.6600000000000001,0.7838310333030141,-0.03388273077339424,9.749756839079616,-0.00803056000735936,0.008591188423821372,0.0035184392109139074
1.67,0.8426640291145301,-0.029360052563386217,9.906199147807104,0.004241287161667072,-0.002249804793092667,-0.006028122665836522
1.68,0.924511758658712,0.014836134524206037,10.030125171488825,0.0010024466273190955,0.0026285395043596387,0.0008528870041938278
1.69,0.8372089679616327,0.025337474926432364,9.90817896271976,0.004586005435816095,-0.00434437299818016,-0.004405571762336804
1.7,0.7376244678319324,0.04894642433121847,9.728185476657654,-0.0039558107753544045,-0.00550385814255941,-0.0020807460149916074
1.71,0.7578992166589017,-0.012715904979989225,9.786759881209765,-0.0017076306755393084,0.0008328842476830331,0.004485224929594757
1.72,0.8794618937775143,0.0540713807102175,9.847608710106602,0.0018477470745127083,-0.007154310327744462,0.004021399325557102
1.73,0.8842936683065084,0.010939233350786632,9.846681754352282,-0.005557403916939349,-0.010493106725116887,0.004119857149146505
1.74,0.7541545059774916,-0.043948085274700115,9.83011325111138,0.005053602503886544,0.006815298542812498,0.0013581452609608689
1.75,0.8214315912521065,-0.09942729319060355,9.700663140591368,0.007376647297495157,-0.008085404535193845,-0.0018078995660282882
1.76,0.8959436864548918,0.05068386390133964,9.753626428826133,0.004551216850164488,-2.7287172520393013e-05,0.0025129547627999503
1.77,0.9610693942884618,0.024438320017210975,9.836878104234406,0.0023934119431407,0.004465224166976632,0.009662021565113189
1.78,0.8373596534427796,-0.05303833140544679,9.756911191139988,0.0024717508174785957,0.00306675124311707,-0.004546805892158749
1.79,0.807158798414768,-0.1133426407040268,9.924891579345243,-0.0022003501452001447,0.0008128599972112308,-0.0007764295980524378
1.8,0.7933449493072096,-0.04689309795917928,9.593674531467821,-0.005784933587312693,0.0050030364489801835,-0.0025377911594149346
1.81,0.8342045754736324,-0.15642771092161353,9.959203826774779,-0.00010990991230422432,-0.006274667001323368,0.0033197024952151878
1.82,0.933714076349311,0.07801893828530343,10.058439079674672,-0.001103641419140972,0.0029929661691971256,-0.013679520032889352
1.83,0.8340025289945753,-0.008813628720396944,9.851812345073517,-0.0037993815138643136,0.004346284150023588,-0.00030108239388356475
1.84,0.8622539233831825,0.021071645086370806,9.716872683104189,0.01071194150132516,0.0015550654954904375,0.0044142354771176725
1.85,0.708355839635579,-0.03236499680414801,9.998181133229927,0.003466362763980005,-0.003420268713094605,-0.0013937610800476034
1.86,0.9494672000761017,0.1416385304449159,9.768932685448053,0.0033743452671093368,0.0022054283976659273,-0.008704365856811232
1.87,0.9286948018618364,0.05607608967598262,9.713137658019773,0.005021082817802398,0.0007692986468276338,-0.00956017902548296
1.8800000000000001,0.7978843161613707,-0.029647205035870088,9.844329056548158,-0.0031137690730096593,0.0033778579587046627,-0.0031120123992438133
1.8900000000000001,0.8130550171219345,-0.027395935355197437,9.946996483514136,-0.0027717954889418485,0.003704184935547479,-0.0034532459339405774
1.9000000000000001,0.9155787025326273,-0.049998100859272115,10.03978848990481,0.0033691751095441588,-0.006060939126479374,0.004005417430591576
1.9100000000000001,1.0566787433204299,-0.011863519923311399,9.73488963373377,0.005683135977365897,0.0008563805864826927,1.6428806809047915e-05
1.92,0.6860987767653597,0.030804743376271024,9.822130836167252,-0.005265786487102116,0.004737034675775465,0.0006167726822037958
1.93,0.7798305462235912,0.027932484347786165,9.819528644388624,0.00569861596741847,0.002808822083560209,0.007085222977488405
1.94,0.7889937328249745,-0.021576141005470967,9.750693750821332,0.004393914950204317,0.004819308390960648,0.0014140435325995656
1.95,0.903628729073073,0.11602093280783925,9.836915812461259,-0.001591248112153497,-0.00018664106797246742,-0.0020179471839019258
1.96,0.8485228868907261,-0.16078371903823363,9.87362470881521,0.002682334174989575,-0.007643765350919233,0.001720418629577479
1.97,0.7790049685486113,-0.046930847977063865,9.844848600581274,0.0010014402171254998,0.0007732811657619964,-0.003947203125274855
1.98,0.7065148974546076,0.05510971740911922,9.694170062583748,-0.00644696812390111,-0.0037917516645687563,-0.00028876661606379983
1.99,0.9005368775078116,0.11262188817478715,9.815247000519301,-0.00044405673348229055,-0.0009053023159972591,-6.93538913412103e-05
2.0,0.8034306805662281,0.01573680445309543,9.671336531079469,-0.004489393825704334,0.0009771022199076059,-0.009514411181187087
2.0100000000000002,0.7266366295000912,0.11976734586692872,9.616418964167096,0.005832147065126362,-0.001661360891179329,0.007407485919512333
2.02,0.7645082982785604,0.13691522458280844,9.8039414444303,-0.0008075096828347241,0.0020577876071221687,0.008519415269046104
2.0300000000000002,0.7848839125288509,-0.028529253370217625,9.861110725283924,0.0015801244355094835,-0.0034742433646783827,0.004790907511143478
2.04,0.7947144708984455,-0.06745215411067362,9.81012667569387,0.0015506101607674287,-0.0057000671095634595,-0.00697170226672335
2.05,0.734949753168249,-0.06906555527741813,9.769989545222142,-0.0037757655964948456,0.00763380950900142,0.0007426369227296995
2.06,0.7357713715501136,-0.11411792445550642,9.843775525827217,-0.0002871815689895782,0.006155259281794595,0.009102887309252827
2.07,1.0077142951272968,-0.09829224670447083,10.01242619088226,0.00025307884440694227,0.0034025467017686733,0.003484179031523401
2.08,0.8443233136634842,-0.07579387272538733,9.834195489219903,0.005666162089664933,-0.00046779354065816444,0.0061433060190561
2.09,0.7848581228732081,-0.09330505850216167,10.069709255197916,-0.008086961954651011,0.0018781963478579054,-0.004542316097044588
2.1,0.8478197011886427,0.08203334187638012,9.786397424088182,-0.002674074330205873,0.007493509537125249,-0.001799938550910585
2.11,0.8302346689621819,-0.035708230604882096,9.793136094080198,4.6610219524469176e-05,-0.0011680695975876704,0.000631728930437673
2.12,0.7446649291064898,-0.11107205773904824,9.837252177588407,0.005222349681741804,-0.0005626872931288503,0.00502391788424818
2.13,0.66376850856752,-0.03109643016474499,9.515502311566111,0.002881528658928904,-0.006119602501418925,0.0021757142507041415
2.14,0.7743388508533623,0.020031796312320615,9.823877637673556,0.00617738726099284,0.0002580407048436029,0.0013107617504892538
2.15,0.802012146900706,-0.02089022664279882,9.686164343513314,0.002601198772177731,0.005534090305414382,0.0073394327179671405
2.16,0.8076529802093573,-0.017369661067047695,9.893249225883064,0.004765625838141378,0.0008182769990617644,0.0038166782862890263
2.17,0.6697066947963566,-0.14629467304358273,9.737360720907729,0.004710934214943107,-0.004997462298172118,-0.01176913331967308
2.18,1.0144276997952477,0.072804360369005,9.728965602652705,-0.008614489591838366,-0.001063858787329142,0.0012381683563529862
2.19,1.0080405834612314,-0.028131184409967154,9.82392486098978,-0.005132275912810247,0.0018384241694369844,0.0006428319001454254
2.2,0.8512093051733736,-0.10405448191414829,9.724961791555032,-0.0027123623923578674,0.003540555763706874,-0.006978582246113102
2.21,0.8174620597377018,-0.008547933059902299,9.718999270362842,0.000755721475139658,0.007787198523967522,-0.0010012921745153028
2.22,0.7700352783520065,-0.03968368676700064,9.800378560115917,0.0038461076654448664,0.003681948100131085,-0.0017994341543440446
2.23,0.8613004996883896,0.009797952677252983,9.97610096347369,-0.006851946571181726,-0.0030286846987555376,0.0015584720618144325
2.24,0.8054544927953541,0.20445215545314244,9.782864697458885,0.005274212786570766,-0.008070627359924568,-0.003964096733328058
2.25,0.9147888466486386,-0.05983258739861297,10.073176828005233,0.00012681782935309414,-0.004176170896241902,0.007211018708806863
2.2600000000000002,0.8875331100773933,0.05963762090356621,9.951561270991425,-0.000698745566400846,0.001347326461895674,-0.004179828514965587
2.27,0.746153265595314,-0.026244313599357888,9.764644581031648,0.0036024675366097643,-0.004592562603874132,0.0022418984824930733
2.2800000000000002,0.7589742161336973,-0.03116946911433833,9.85017780037653,0.008003070082075911,0.00413039669075663,0.00096244126599504
2.29,0.8913575014376794,0.10046426325199999,9.847777843116583,-0.003918947738385381,-0.0035697433034684403,0.0022137411235573206
2.3000000000000003,0.8691464145152112,0.014542069465381955,9.793266925992668,0.0007149032831453583,0.004541220829735097,-0.0002165829142475592
2.31,0.7243076479958024,0.12898950425139855,9.842802601028056,0.0026728841250114868,0.0005022350814291645,0.003237708609686291
2.32,0.7765870074095638,-0.00411806095648267,9.68773087785229,-0.001528487548897749,-0.0073081978851178364,0.004977243077053321
2.33,0.8006268096614946,0.1092483070962099,9.95821052276274,-0.0006865905463881905,0.006787885907873076,0.0005231748391846988
2.34,0.8097909206542094,-0.026772710954143776,9.815229304497745,0.00015562648750096892,0.006662049742585269,-0.00324751434473181
2.35,0.806767200656019,-0.05481571661032659,9.923651627897122,-0.002175036281192644,0.0021939770569969355,-0.0042374830634861705
2.36,0.8842429100696146,0.03501245603590262,9.74618679727131,0.008966046331620289,-0.001574936445541293,-0.0009483067195952196
2.37,0.8237506325337859,0.009458487399443001,10.041379755857628,0.0068025930967528115,0.0003208115918037949,-0.004133814470801143
2.38,0.818332859983526,-0.10701685226815523,9.778720384215347,0.004870628974668279,0.004326260167323331,-0.0055834948382566365
2.39,0.7511145349275881,0.015926155859084575,9.71142433480436,-0.0034716251001776833,-0.004950988488204063,-0.018505526661590124
2.4,0.8248426270097147,-0.0609291811666804,9.557406327989073,0.010567701380878907,-0.007044360296926658,-0.004139283118219916
2.41,0.8089218779847345,0.0653519869634471,9.826126703071886,0.0024753306476675875,0.0016996409014020692,0.003291550573075959
2.42,0.7726113807215546,-0.053106329451712446,9.897746325165016,0.0014387876104321408,0.007640834594303072,-0.002894742579895902
2.43,0.7187262935211209,-0.029112210321562883,9.910968626754698,0.00878766392246797,-0.0020265445841202634,-0.0063293485315388896
2.44,0.9127141859057426,-0.0819985671213601,9.81105459513883,-0.001916883421831109,0.0025560991739424243,0.006329494330097096
2.45,0.9527139920639969,0.08035487716564259,9.683348247645036,0.0034176057780481296,-0.005945560894838648,-0.004334360426629901
2.46,0.8296732963420276,0.03420580175712956,10.00046914906851,-0.0028328772373516103,0.0013133187611994938,0.0051223778600580526
2.47,0.92465719225396,0.18210910198029748,9.775719890123744,0.000772661898240166,-0.008160088133547787,0.006779729739948622
2.48,0.8280271021001882,0.10081928655171657,9.566553491599876,-0.0031566789054275598,0.006347150655102726,-0.0016695403239584722
2.49,0.6984897172019627,-0.03530387383523098,9.788707456170515,-0.0010067582155672008,0.001747498579101502,0.0045241432869709336
2.5,0.8332355045251643,-0.12406207971408108,9.568270345178851,0.010892574945122573,-0.002006974937031137,-0.0008339191462360721
2.5100000000000002,0.7818240897880686,-0.050205392559376644,9.507674205273675,-0.0044743040656650785,-0.004169024321613018,-0.0009983559044205543
2.52,0.8468238525003536,-0.0125907597000969,9.747709990872265,0.005005779741066036,-0.0028373218130544166,0.004936779448702774
2.5300000000000002,0.9341900872256561,-0.14417846024050307,9.675066552681203,-0.0018999163461824473,0.005543464069385484,-0.012332807847891557
2.54,0.7677604926529406,-0.06795060265326427,9.73259070836439,-0.0031686551716746335,0.0050874354492796104,0.0023023996662080996
2.5500000000000003,0.8390660488339762,0.08127480190613345,9.792310911186107,-0.0006282790387947509,0.0015526772653822092,0.002285549340483507
2.56,0.8767235515221004,-0.06871203372811432,9.6586609525555,-0.00017999682809200542,-0.001491735857990248,0.004611560050833741
2.57,0.9159357025533764,-0.06991569289766406,9.873020204607787,0.004369136361124125,0.0052410974883272034,0.010561504678573964
2.58,0.8862287644018696,0.04147226801523285,9.682820138869172,0.0015777735241140174,0.01063056071255482,0.008059377614597182
2.59,0.717937450994756,-0.04333822675238854,9.744619456042393,0.008261679653886338,0.00245248302255772,0.0050103581754019815
2.6,0.7176084932316387,0.0009614602496661886,9.849329742597856,0.008529046884765147,-0.005331871164085262,-0.00013032362597742466
2.61,0.8678548314786485,0.03138764121308648,10.002633374154941,0.0014368587906380143,0.006070667491616463,0.0036569380991774555
2.62,0.7756537154018108,-0.049480340725082506,9.73927707190807,0.004670113082442567,0.00258601825576149,0.0014282290541973355
2.63,0.7274767327110716,0.06173940548649389,9.739533411343139,-0.007917779036680322,-0.002103768821532199,0.0044533541489596
2.64,0.9010136805443615,0.05527162371666933,9.899591460418462,0.00016831452483727534,-0.007398302072359254,-0.0024550033167744685
2.65,0.7761326383833652,0.02601210203137924,9.801109269899325,0.010102042610225377,-0.007329449516820595,-0.01128324578710916
2.66,0.9358951799544667,0.12090349950345712,9.8072832461503,0.005694122043181759,-0.0006073683713169677,0.0028905449729540755
2.67,0.7699858595229261,0.0703393248742902,9.83795698198733,0.0044454848501109204,-0.006486308070626643,0.004497222894423486
2.68,0.7452363294137908,-0.021773698158385497,9.723971832422187,-0.010458729659037713,0.0017020432834177251,0.004044636517952644
2.69,0.7995896495499125,-0.06098205684723853,9.828066693245756,0.0007547216242745052,-0.006470663454857315,-1.440012893711082e-05
2.7,0.8651551377188132,0.012397090522212651,10.06033423120037,0.00813642612000308,0.002753025339994179,-0.0029746008207083923
2.71,0.8276828626430613,-0.005535496401237418,9.790026186447479,-0.00010333456551800273,0.004822537657292992,0.0078532443538331
2.72,0.9553366286972285,-0.004700829949756938,10.05519896571445,-0.008816294755711843,0.005722642301519721,0.005031933121048423
2.73,0.8174757076789121,-0.04474948931523651,9.623298958246943,-0.00466040638907401,0.0025114461963275897,-0.0012633720271694913
2.74,0.7893854275392499,0.0032830494010095412,9.775897747110829,-0.004421318879079847,-0.0006700443475870083,-0.007016746153834745
2.75,0.9239911960908863,0.12497648580647354,9.80567175756709,0.00039936319623013855,-0.0022929756618191082,-0.001343705406450379
2.7600000000000002,0.8506248577722269,0.05510433238378151,9.63880964211113,-0.0015476714901938831,-0.0008929977932352488,-0.0036821962145354493
2.77,0.7696723094335626,0.010964873940803968,9.77046855923997,-0.012668848511273851,0.009787871548484825,0.008635885557245999
2.7800000000000002,0.821596056456612,0.09903984896447154,9.719739190864122,0.0036529274220462485,-0.0019556046699843723,0.003928084021941458
2.79,0.819708300475444,0.05816661751055767,9.718456646638158,-0.008734853805074674,0.00462415532365507,-0.0026273087775182283
2.8000000000000003,0.7855673825384024,-0.026168431052046612,9.812675867243302,-0.006639996941736824,0.005803904557769344,0.0025349472303952923
2.81,0.8163412362173517,-0.004247561666545675,10.000915583473809,-0.0024245398329489913,-0.0002452203245302755,-0.004645884267322168
2.82,0.6984840729018403,0.07206460275351184,9.880373812393298,0.0026039772103268895,0.002376066404718972,0.0018552601296778122
2.83,0.7727561879649069,0.019148769570752844,9.906476322343327,-0.010735088579521839,0.0011897543451426119,-0.00560932098653045
2.84,0.835481229793109,0.03409827582026259,9.841426610748705,0.004473588067319315,-0.00032692357807495505,0.010942459193694621
2.85,0.7584633310734114,-0.10027807210849485,9.697174284806081,-0.002789559016030342,-0.0070209806487989395,-0.00424636111892381
2.86,0.7291414998057802,-0.0421103566950885,9.785601220218558,5.1728267127748886e-05,-0.005435101914032124,-0.011929745108007721
2.87,0.7969539770871172,-0.0045951439949103575,9.809685544503036,0.00319954077697643,0.010382260498440543,0.006935094869679802
2.88,0.7621277630888568,0.09053528401389432,9.77762461686932,-0.0017868119937209923,-0.0028671337251802275,-0.0002633404169402785
2.89,0.6939171332241523,0.1512701313122867,9.77168761997814,0.0057071228051442015,-0.0028838308234958765,-0.0010296688535338047
2.9,0.6956523632757478,-0.07203939202572776,9.87109491978207,0.011210942276272931,0.0006904365991477504,0.007104093794121496
2.91,0.8318059695196968,-0.04968245337144698,9.922734469299812,0.001629481838064118,-0.00023793571974036268,-0.00011671127178586344
2.92,0.8061412700505536,0.03577106182771738,9.971631434448073,-0.007291466465212733,0.002156800763741901,0.0025328092278173488
2.93,0.8237538498669656,0.1701498717115566,9.79768806439026,-0.005390766004521822,0.005779614377862153,0.0005518604290014918
2.94,0.7744742544233305,-0.07969796467220738,9.968115608535534,-0.0013221895850785365,0.007588541213552682,-0.0073273676007782765
2.95,0.6770270244031121,-0.15702191660290157,9.79336061323057,0.0022457572559935845,0.0032595223332491513,0.001384198120565059
2.96,0.7279019924945092,0.013128723373630634,9.821489749159541,-0.0027312228323399085,0.010955246868846016,0.0036178188142058547
2.97,0.7718093844407434,-0.10792161850591996,9.855867094579152,-0.004625242523385121,-0.0031730088320881325,-0.009097623407774867
2.98,0.8321827518293118,0.045404720418169425,9.922362880625624,-0.0007983644998666319,0.010332784565869444,-0.007083693617150143
2.99,0.6571363787980984,0.06249655285148641,10.044061124843555,0.0015501172236257927,-0.001747001838236606,0.0016015848895410468
3.0,0.6118585726457327,-0.017612110981391635,9.654245576291206,0.0018539785352637797,0.0008900430765559364,-0.007152060982678142
3.0100000000000002,0.9123969411286998,-0.035968384144395404,9.77475641187138,-0.004186592591030117,-0.0020386637262143786,0.0005773283018807399
3.02,0.8440415776180367,-0.05699119213910336,9.872124162151696,0.006776574754358147,0.010831444281266223,-0.0005903581714495099
3.0300000000000002,0.7258513164019331,0.005197895446334577,9.674674791191158,-0.0021773049184563853,0.0007479985531357675,0.0013928082554625608
3.04,0.7768897845145406,-0.10546187282759988,9.623099363348357,0.009272756076242365,-0.00722081343374515,0.0035398221105776575
3.0500000000000003,0.7616904725947466,-0.03684946902415359,9.784694299080527,0.005767614787899408,-0.004575060573333376,0.006506785453427087
3.06,0.8182858367636326,-0.05842444286192052,9.690260462804247,-0.005026716730406322,-0.0074208382744798095,-0.0011559955893074112
3.0700000000000003,0.7542431309115868,0.022102683859643313,9.87757208807871,0.0038282528948185863,-0.00952982857941444,-0.008683791999373356
3.08,0.7026703386397033,0.027876371537325546,9.723637555503984,0.0053678607581676705,-0.0007686573662868416,0.0018814679318854381
3.09,0.8334248531881054,0.11278447441416535,9.869274538376212,0.0029268293292498554,-0.007345548372764772,-0.0029124601111884187
3.1,0.93915216295711,-0.07838192211437664,9.983488865021336,-0.0002011564351204028,-0.004468391695027003,-0.0019759635007663328
3.11,0.8361032492469056,-0.027651350398012378,10.041276465813102,0.004649673219476331,-0.010288693629851485,0.0008101495188110872
3.12,0.7994450156135403,0.07484478183356771,9.844098436855,-0.005231088134073409,-0.0014124392607844582,-0.001270399743007973
3.13,0.776016245695623,0.03790442995376452,9.717139206723928,0.0005456142431189897,-0.00036815248646434505,0.001505765929569825
3.14,0.729774632993918,-0.05283881718883112,9.971097728747912,0.003083298405000245,-0.007849472443076053,-0.0017442681939913284
3.15,0.7599854310876032,-0.10582448605457467,9.837837256750003,-0.0039405579390821,-0.008668377981612938,-0.004925890254041836
3.16,0.8236931664524373,0.14802519323791416,9.838914926482774,0.00510493591211427,-0.001271945880766471,0.002568368343895695
3.17,0.8869989707848754,-0.12741227536611419,9.870189706293694,0.0021598974123262,-0.004522645115798598,0.0026923606760269805
3.18,0.8902855314615472,-0.09983940805797513,9.679183378874978,-0.005517434279948461,0.003624634467962282,-0.0029747783857037
3.19,0.8050765429889044,0.014967075716660267,9.661566803449782,-0.0066689142243019596,0.0007023477366964645,-0.0035306264092005613
3.2,0.8061024844947855,0.07687140299217206,9.901977371179361,0.003146493075176476,0.0035557054423097628,-0.014932500784283369
3.21,0.7950471317730774,-0.0701590345052531,9.757345391938136,0.017218680313246696,-0.006417086036044401,0.0035844748757833805
3.22,0.8362608913558935,0.05457975875015794,9.876923279617396,-0.00226306950982482,0.0016524037173109968,-0.0031222603288532523
3.23,0.7941367620980238,-0.08074923610601774,9.804073532864505,0.007367922768266847,-0.0071705131191501705,0.0051686544869251365
3.24,0.795155252520629,0.06408980706318074,9.938645259789011,-0.009567044726815353,0.0004838586856636926,-0.006934141087122031
3.25,0.7208871057350149,0.06505595130370774,10.00546378869045,0.003565937821910602,0.00171052560637081,0.00262534735892095
3.2600000000000002,0.7186904092691212,-0.0702208541369365,9.83025471232476,-0.001348440428521173,-0.0013243025178235957,-0.0006767345739021506
3.27,0.733826414553168,0.07023340107260823,9.911709653719875,-0.005870019028466848,0.012879535478603543,-0.003983270327066366
3.2800000000000002,0.8080167295944997,-0.07847382314468711,9.806070158238747,-0.002001047017953245,0.0016039485704151704,-0.0022398563972545753
3.29,0.7640150232444523,-0.19845333019535466,9.965382856714891,0.0014278190123669418,-0.009256547837610133,-0.0001817144168346534
3.3000000000000003,0.9948205396468073,-0.01178009763750257,9.627166417338838,-0.00469936916110857,0.0020101350736653266,0.007642837505134887
3.31,0.8189670772601836,0.030856614807962375,9.880176896073515,0.009460404017760849,-0.0022621947355095625,-0.012538821451013746
3.3200000000000003,0.913298816875282,0.06071291396994237,9.761870272648888,0.0016385272028647893,-0.0018628381908986158,-0.00468835205001463
3.33,0.9061145286091128,0.08587809661851466,9.882558486895508,0.00129060374876291,0.0010500745186052002,0.0035754587098351083
3.34,0.8210082640045095,-0.08318876927034072,9.794257121033686,-0.0025336527203838506,-0.003009902326576467,-0.0031467010198164263
3.35,0.7834665184077343,-0.0008842620465147778,9.856885229055615,-0.003389126249088848,0.003379900657295081,-0.003988012747682182
3.36,0.7145123080713935,-0.035315146649195744,9.764532549958687,-0.00716152026533878,0.002454774294609011,0.0022354350901807674
3.37,0.7379797589429055,-0.0010133187430906802,9.466737316680993,0.009562883600529955,0.012408624376374792,0.007596197690216877
3.38,0.8530547568957753,0.1840646579004981,9.953864984482667,0.0033566033629005947,-0.0001005381099441577,-0.003804471596780783
3.39,0.8070926440430662,-0.015322069004024625,9.57812626417596,0.011124883313254577,0.0019525977391201574,0.007259163504577938
3.4,0.7338193876020217,-0.07841848368982328,9.681809080030652,-0.0002560322937465869,0.0025580245034000156,0.0009600550412951336
3.41,0.7683154805278096,-0.0204524356248763,9.863766389238632,-0.003353216498119857,0.002735062435533718,0.011282840653792094
3.42,0.8109581055118626,0.06763955622089707,9.864927489850215,-0.002631063239963191,-0.0010560022002538325,-0.009173662385750467
3.43,0.7862787628162369,0.03877915291988343,9.926243610942098,0.0030795567630694117,0.0029834175801656615,0.002828417304555059
3.44,0.7649317298733845,0.08322686429427135,9.861193459329026,-0.0013563540527961775,-0.001980168195711412,0.0009534033111734884
3.45,0.779292216860373,0.14787219126466042,9.95089819443776,0.0026039601007733556,-6.300883992833717e-05,-0.0023648504208225556
3.46,0.5901228713284364,0.14446409308278965,9.903138314900525,-0.007932646545087668,0.004856579195179276,0.0006736045216776018
3.47,0.7845102693508942,-0.06421585322977125,9.611111667964705,-0.007090282728513355,0.0031194559587395306,0.0033143949766937237
3.48,0.698078729949748,0.05994465629881937,9.825800746003823,-0.002426538572619256,-0.005207448164535064,0.005230634543638178
3.49,0.8115063871529846,-0.13990372804928916,9.736867514043311,-0.0024472977888158436,-0.0117751000038001,-0.00035235117724863335
3.5,0.7928313077759092,0.08734364355666042,10.020219871588157,0.0007106578842254451,0.0005547165318083918,-0.0035784391214976966
3.5100000000000002,0.8416720472308054,-0.12386588974548617,9.731785366320178,0.0002918641726296455,0.003517821721623347,-0.01067428944569941
3.52,0.8421387453473361,-0.12349842192873216,9.90316826243427,0.0027200685453042466,0.004245258185017703,-0.0017015793605506852
3.5300000000000002,0.9187390322395994,-0.01516941906184586,9.630483444693782,-0.0067005900816947276,0.004499288064464266,0.006444082508774887
3.54,0.6221992071609618,0.07449430164909879,9.788012938631509,-0.005599900935083899,-0.0008517337888028081,-0.0049208437283366335
3.5500000000000003,0.770447022074431,-0.07512393074633725,9.820617669805785,-0.003115549581897739,-0.00023550551942415685,0.004640384526197628
3.56,0.61697457763481,-0.042344219773688886,9.620024046375201,0.0030727396199996264,0.0007004024153834975,0.011043237747151404
3.5700000000000003,0.8191483309544739,-0.0667942629736673,9.768837541494952,-0.006496499879732441,-0.002840761349713196,0.0005277006891571825
3.58,0.7662093686936652,0.01182367105898213,9.863780472441245,-0.0015575824112188435,-0.0010326298046018493,0.004324769041633543
3.59,0.7415892261948761,0.07374075672903627,9.92820153143536,-0.0044184375745306955,0.008878663096801728,-0.004564137828723093
3.6,0.8002890648507788,0.0013863793197760538,9.914807786191698,-0.0036985128662965993,0.005689849994860643,0.0060741965584465915
3.61,0.6943757727613199,-0.04965209589368347,9.822443324031488,-0.0016197813765060022,0.006218828264148191,-0.004535895547160227
3.62,0.9261078249502084,0.12271411350792782,9.860503104231526,-0.009541075949861534,0.0049547322215736656,-0.007562617152252869
3.63,0.7584015512773646,0.0814607735376267,9.673722815411852,-7.047373886963313e-05,0.00952241248773724,-0.004729414897311092
3.64,0.783751597095556,-0.06265496778107546,9.602744474063549,-0.00647281539257335,-0.004765361523104848,-0.006142520027134597
3.65,0.7670200573654029,-0.07147049631222918,9.806163406063591,-0.005531632342406825,-0.007691653391306617,0.004855802496151843
3.66,0.8507672807899316,-0.032488780940540786,9.646556474301262,-0.0084092527535599,0.0032574976113417843,-0.008249616623300926
3.67,0.6804696215059076,0.0784258180247111,9.538747543938534,0.0007635699533846051,0.004441096291754531,-0.00017753344673248538
3.68,0.8425733410740133,-0.20728385461146165,9.771369586100064,-0.0060658091352493405,-0.0002297581287768614,-0.0026875065235271575
3.69,0.7345012658391221,0.10476240495381559,9.768693824753939,-0.0009402668735354474,-0.006446034378091994,0.0017958823184929488
3.7,0.7348687206058802,-0.02864068109498867,9.709554387463344,-0.0013901258909811952,0.003810141401750124,0.005179401566926835
3.71,0.8456749191866262,-0.09794387673626613,9.851224746546706,0.001743779333978517,-0.0016098521485304695,-0.0038459195696697573
3.72,0.7535345096767873,0.011345415690716456,9.869471346552189,-0.004362525429523309,0.0016607943392993785,0.002590147071093774
3.73,0.8237596682320237,0.02250268022125565,9.857375760453582,-0.0006740355980551584,-6.661101835934157e-05,-0.006931022828456127
3.74,0.8249189665954337,0.06966790053387655,9.777446174818424,0.0007162755617666173,-0.002305483999546161,0.005798667837166705
3.75,0.7460564902244129,0.09173277695302119,9.754867803679872,0.001611260132663947,-0.001519827368173246,0.0019651080505207756
3.7600000000000002,0.7922864071143678,0.02767258538259737,9.659523240334215,0.009394490277069885,0.004361125702175003,-0.002848036519254486
3.77,0.734602539687756,0.0404640078107318,9.79562092620162,0.002551255047062358,0.014504874974934703,0.004383350261895128
3.7800000000000002,0.7714111118095213,0.005143795432390073,9.894092607316935,-0.0006333536881571946,0.006215987648667269,-0.008979369763601077
3.79,0.810532505685782,0.05320395762727824,9.789342875437734,-0.005254628919357921,-0.009413296292319646,-0.007913216531365815
3.8000000000000003,0.6957578291151704,-0.048829790073769454,9.819962246848164,7.131524633412483e-05,-0.00689388514715502,-0.005029443749282385
3.81,0.8071811945867626,-0.03135256834999825,9.834690905647353,-0.008581597476040393,0.0023237447450751452,-0.0061293616163192255
3.8200000000000003,0.7970295657363317,-0.12537218652880533,9.79067929635853,0.004361355991524794,-0.0006858423858686003,0.006976814096926322
3.83,0.652154456054432,0.13209340182604618,9.72479459666338,-0.0017855532240785845,0.004337119076424601,0.0010306679075530493
3.84,0.7112452838791956,-0.050502970437978516,9.803707668953896,0.0030412296435915857,0.0047420658121698515,0.0009185409083895033
3.85,0.7152692146560262,0.08604059943864399,9.839050599002226,0.0019017824810106745,0.002806128265747128,-0.008061282235887738
3.86,0.7346920294003407,0.10070055213165675,9.872934329431999,0.0018477289728688134,0.004185978907481528,-0.00040874877286642115
3.87,0.6934263386758627,-0.12364707193733422,10.061613186142855,-0.0067668351424413796,0.002498698530147206,-0.007014920074467625
3.88,0.8446840890541544,0.010920931799349928,9.819370682549525,-0.008410033415882633,0.005815375502403972,0.0026109929595808717
3.89,0.8540470441207066,0.05251553118698807,9.86003937736283,-0.0040009135492718095,0.002117371840972617,-0.0009911326567489474
3.9,0.7058259945619516,-0.04411172050959739,9.722269089916802,0.004028404759182789,0.015265163384510332,-0.004430263779174513
3.91,0.6761737375759964,-0.10938598189989895,9.818509296596456,-0.0017559648532566555,-0.005897853275407614,0.005225565324183196
3.92,0.7670905437100236,0.11868493210011068,9.684270822419153,-0.0011490131151524095,-0.0011113878509247661,-0.0021329186217877013
3.93,0.8742222241214261,0.05185680444675116,9.639527761929696,-0.0029237299063955948,-0.002620702438301944,-0.0019410399864550655
3.94,0.9397917580288135,0.003306555725402529,9.679133830513383,0.003930444436538753,0.00464638413936752,0.0007840985837827268
3.95,0.7131372402476924,-0.08368397117675387,9.807964870638036,0.007208312745699632,0.003143240711000595,-0.0031443952299631
3.96,0.5847537320274413,-0.0811866034651583,9.602869013894889,0.004378171871115669,0.004677436106057668,0.0008582401622106741
3.97,0.6473981187123848,0.013391608589350486,9.837660419215412,-0.0014068355188451881,-0.006736709109691681,-0.0023581119069612327
3.98,0.6234451861528061,-0.0372164130976554,9.813550491593128,-0.009272777628887167,-0.0017653029379714428,0.00023671146940905852
3.99,0.7990334867307392,0.017529185599882213,9.649993392954718,0.005432081389431279,-0.0026422882030917427,0.0012597780078116936
4.0,0.7731321380825547,0.029836160826287022,9.766328741218016,0.005709790159852265,-0.005691653824684478,0.0028293835857527627
4.01,0.7823479062074266,-0.036099977857598796,9.767935807492735,-0.008294869987171601,-0.0047706157075730424,-0.004304951329138344
4.0200000000000005,0.8546890131513516,0.13548432321452172,9.896989956290474,-0.0034561350500081694,-0.0035832056950451724,0.0016964968983849134
4.03,0.8945707623582304,-0.06041709672181723,9.709633551567803,-0.0010429378895596693,-0.005173160685311024,-0.007600457999965354
4.04,0.8313323501520641,-0.07591436814836314,9.962274632801327,0.00339365655214713,0.0047876795549500984,-4.8939352690518765e-05
4.05,0.8223507473965412,0.033585347118752704,9.76903516715603,-0.013991197290760829,-0.0025475730380634153,-0.0034008145424322856
4.0600000000000005,0.6452491823048488,0.03853123305231677,9.763239625858343,-0.0025919802053936507,0.0065705230139266185,0.0033560653672711424
4.07,0.7221240189165008,-0.0801216562633452,9.564269064958943,0.003964486772456074,0.005303479849216235,-0.0019787217906435664
4.08,0.8732341830161134,-0.027457382350297824,9.41822202402171,-0.0016853452883723236,0.0004176423297994697,-0.0028482654697504534
4.09,0.7181116798423481,-0.12323281058684009,9.75404716207859,-0.002947485065901088,0.0042074560580718096,0.0029085574647230755
4.1,0.8501640716019452,-0.045202975492824156,9.606592865810619,-0.010402138326492925,-0.0009471036275829485,0.005880580389127862
4.11,0.7712245636608333,0.06423094461598983,9.670797017754104,0.003915346568369927,0.0005461920080992139,0.007650305638571615
4.12,0.8236425221862395,-0.1035137900895116,9.770954029842459,-0.0020356338790797927,-0.0011902032572694184,-0.010308896318555898
4.13,0.690873210112658,-0.08731127514440218,9.940236613182272,-6.050684137574345e-05,0.009351767798881633,-6.443020947820448e-05
4.14,0.8213029494508552,-0.06631643884437487,9.774833740492205,0.001052057465538112,-0.0009024138243944174,0.0022696430855034563
4.15,0.7087250791359486,0.09126095280138553,9.768366019261752,-0.0033064851133388154,0.00890332746265098,0.005438477465098702
4.16,0.777957127843721,0.0799643938472005,9.736435679785753,0.0035380132334548193,0.0058611733113177345,-0.00014799499896271
4.17,0.7568150685884475,-0.1678006990902881,9.836989833321411,-0.003319644048803032,0.0018516590789621774,0.005980708420852252
4.18,0.8541344561422104,-0.1429479433531308,10.093279414399673,-0.0014111890587973409,-0.0014873343490646057,0.0005893051045836868
4.19,0.8249649302305982,0.007070593085020083,9.8672843591666,-0.009889287782783855,-0.005183594210412207,-0.0028667155389098913
4.2,0.6167691520552299,-0.12862520846332193,9.663780783858376,0.0058890759942592475,0.00203627656117638,-0.005243758909906638
4.21,0.6928200384893344,0.09656807944843779,9.837151529006427,0.0016926709348149362,0.0005108538962648553,-0.0025604901346803427
4.22,0.7064058835311674,-0.17595148677028458,9.709667872059716,-0.0030761773220036605,0.011835422375404428,-0.008902948418777226
4.23,0.812240812315829,-0.060151640465149446,9.912681997745512,-0.0027771914101430506,0.004072196208944417,-0.00433630658051048
4.24,0.7168963444270409,0.016629409610379526,9.794142957636065,-0.00273596580322425,-0.005926352831080438,0.0012585025864105558
4.25,0.6689987239964603,0.11787949205916128,9.854337046114788,0.0018294856138571663,-0.0054087740908109316,0.007218261056498268
4.26,0.6465980512109141,-0.0003381221106060555,9.919982357799267,-0.0048207884733908,0.0022792363645422883,-0.006416215128626922
4.2700000000000005,0.8135791975879313,0.02531727640491122,10.04511741138714,0.002768527642258515,0.0025805606028270053,-0.0036504462205169917
4.28,0.5891283417675613,0.01419850586233236,9.7263217538634,0.0018851435748752734,0.0017301759565200572,-0.0011423464644403534
4.29,0.8390415364792099,0.07525156473279532,9.557365717849015,0.004139785058395125,-0.004451637813521181,0.006202961609076354
4.3,0.651296200798161,0.024628215334882703,9.604130721265495,0.002722583895198947,-0.006372340872867869,0.0027847836267106997
4.3100000000000005,0.7180494947524003,0.059018957797944895,9.75887385977866,-0.00106849408409574,-0.0029229435756407706,0.0038439535045213377
4.32,0.660003558294972,0.060601236028466544,9.867112174679214,0.005230951869904673,-0.011646902649211477,-0.0002736032276334872
4.33,0.6795674240215978,0.087166520489708,9.785202354570963,-0.0006623352901550261,-0.0026416861713060838,0.000969527503859718
4.34,0.734841933955042,-0.1738683338641741,9.803586277792608,0.005203414231870151,-0.006480589553384875,-0.0037410495295884085
4.3500000000000005,0.7413913168655807,-0.12169847845266527,9.65149125492929,-0.0036532512847163444,0.0028731192805002688,-0.0028434135166469864
4.36,0.6282356684740354,0.05413150042957408,9.829288973359333,0.003824514939713516,0.004590925917741135,-0.001060864475499494
4.37,0.7191265411857956,0.15709277880351574,9.840805837344654,0.0009243055243982804,-0.0006745093337900257,0.01017149148219554
4.38,0.7594267771788913,0.02601754572510977,9.568956245943156,-0.004781896141821978,-0.007522842953236115,-0.013021863560013518
4.39,0.7882154027915516,-0.02062257045069942,10.044589591665714,0.001079059254339192,0.001189967814045143,-0.005670282030106716
4.4,0.5869961151445882,0.07882934661561751,9.90314332852283,-0.0038022156795132402,0.004946269987008127,0.004116025178673577
4.41,0.7116919534326275,0.10571568583250132,9.836608105536756,-0.001198862120801208,-0.002266631859770744,-0.002477208786164708
4.42,0.5853183582836454,0.05388283167973588,10.06734038679374,0.0017827684604614683,0.0018609130302758184,0.003969042227170356
4.43,0.7085568801331354,-0.0028510070297037503,9.746065220680567,0.0033900067371216594,-0.003910856901258543,0.000573869879987165
4.44,0.714385679620243,0.003958508841242417,9.841181757655217,0.0023785954973988585,-0.002669352489806847,-6.613656160961908e-05
4.45,0.7987603323954403,0.0210443135766942,9.624444726797448,-0.0032830137598640757,-0.004282238850067999,-0.006221682894628753
4.46,0.8259083674536105,0.10602524003799356,10.014667402220704,-0.005771389855289786,-0.001976117925255974,-0.003115310312583784
4.47,0.6658956963423521,0.033662040036608464,9.886526623106374,0.004431713436486579,-0.0036675719277540686,-0.0007875584029420382
4.48,0.770783665751232,0.034710098866925485,9.722608632249393,0.0010107765262961114,-0.00423040562009479,-0.00191590235513977
4.49,0.799246490085679,0.076464959214039,9.731617007725447,-0.01353677824336162,0.0053534916183482625,0.0015003012357198897
4.5,0.6866838078326116,-0.0039572869059415405,9.922805079364469,0.014021678297652551,-0.0006547748934379429,0.0032335327300677453
4.51,0.8078894887256122,0.02061639559001623,9.992745634786793,0.004799871388380389,0.0009109065262578306,-0.007456968683628643
4.5200000000000005,0.7565269273087804,0.1571740085726248,9.739000866096431,0.010664411445498217,-0.0010591717082097762,-0.0017729922372239429
4.53,0.7233726952599677,-0.050862000391731235,9.901384894668604,0.0007438288658759332,0.008359719092386107,0.004270535843964151
4.54,0.7561890384668557,-0.045619961755354994,9.696258455313767,0.004497236989910909,-0.0010763354843918303,0.007583222785409808
4.55,0.6180299532324276,-0.06873424981313689,9.878550762313559,-0.001143259669564226,-0.0068619755410278226,-0.00033728901015606767
4.5600000000000005,0.7552804294332489,0.025257822037481267,9.81105037297504,-3.79652252612189e-05,-0.004911062827605829,-0.0029754734912055643
4.57,0.6759754497751628,0.03004395458330986,9.607998449285242,-0.0034999559358985326,0.006288359233985115,-0.002151602794262762
4.58,0.7455415636329438,-0.1533495638264665,9.744436350932094,0.0031862429662109725,0.0037353956209317013,0.004568138021386488
4.59,0.7103644995538011,0.0771355717765904,9.906703622041272,0.0033039473183568992,0.001576294397424276,-0.011970768044802372
4.6000000000000005,0.7654954158005033,-0.08656176958853222,9.863757501160466,-0.008951620313658686,-0.004282763954465659,-0.002958204141146746
4.61,0.8373667326221591,0.03601246114517267,9.660743661641165,-0.0033265096246869715,0.0007851419652626367,0.0007063115490825166
4.62,0.7517806274304686,0.010180432980196169,9.679978403207487,-0.0074383548199213724,0.004237703511320249,0.0015568667228188094
4.63,0.8212372215847913,-0.22667782819725915,9.603041233998582,-0.0014347215202247304,6.706586478951258e-05,0.005879358435885736
4.64,0.6589580194913695,-0.1893648487399788,9.708153785327134,0.0005187753445820397,0.0028656477765216545,-0.006746587955549485
4.65,0.8550760170243824,-0.08972745873701848,9.82845559738406,-0.0005793036126045778,-0.0022745969099016595,-0.00280737663180621
4.66,0.6589522177894803,0.09423365731834571,9.89640276029548,-0.0008909484045540902,0.0013714607027189986,0.0010398219998578198
4.67,0.6392839074443927,-0.14990728608781229,9.600050784354487,0.0016506171147521696,-0.012037053631926215,0.001668199244727886
4.68,0.7171600260902496,0.08895230356380539,9.822950786964666,0.002851152022094209,-0.005819697597981271,0.003070379511679262
4.69,0.7031762912461186,-0.14129694245297292,9.672824710566122,0.00523250286460468,0.0008414471067474709,-0.0011533108453272865
4.7,0.6117594717513808,-0.17486758952565784,9.80709552618912,-1.9715460184577548e-05,-0.004929009794632018,-0.0020824041046009524
4.71,0.6476764208206631,0.023734148390298394,10.025472587207576,0.0015606590631904445,0.007098341524218037,0.004065076935640787
4.72,0.4499475609561639,-0.0027783566864771725,9.660923523201697,-0.009399738289830399,-0.004939532223716316,-0.002789332302301051
4.73,0.6289739782801058,-0.14077511749766788,9.8084802725501,0.002286332719833885,0.00027928514976525396,0.014264067128118382
4.74,0.6838669528036969,-0.09616104773790626,9.451621063883515,0.003269665292081414,0.0022972514024457813,0.0028618128593483885
4.75,0.8554237781698533,0.024403344733557035,9.872065117255143,0.000956921763692953,0.005882653445475595,-0.0011322191029886131
4.76,0.7928601572841519,-0.02968601325348455,9.751455358255484,-0.0055927304838844704,0.002263815616970573,0.005314422215183725
4.7700000000000005,0.7612771308545497,0.04965437658995858,9.947518389227113,0.0008500487805876468,-0.0016906369400394763,0.012914358025131892
4.78,0.908199518625274,-0.026901395123181397,9.782826718385904,-0.006100418612456441,1.7331072426557353e-05,0.003509448052710426
4.79,0.591161539166608,0.0789623784218368,9.869606182389354,-0.0005343407323211804,0.00046564009913582663,-0.0014320379228171137
4.8,0.728716862455874,-0.09173268881590517,10.036574267388337,0.003030862397259892,0.0010602073795070199,0.0017251807786701912
4.8100000000000005,0.8965451788326736,0.047007188467692584,9.881693112201022,-0.0033435695552177214,0.0024270107744660723,-0.008336259366129391
4.82,0.6926984922115783,-0.10143226064758501,9.88912755903468,0.0030318566075574057,0.013144072491574213,0.002400218994115108
4.83,0.6666388948769971,0.024606449429453413,9.950972646024024,-0.00013276229899084234,0.003091648011087563,0.00035289111256331813
4.84,0.7978228811879187,0.051165817317558794,9.851940655073628,0.008394342224016877,0.0061528280638593405,-0.0009558625248915301
4.8500000000000005,0.6874720494494508,-0.08503233996959951,9.716035260233415,-0.004702757283589607,0.0011019681010101669,0.0010909321398138206
4.86,0.83232652889762,0.030240424501530985,9.501681908498936,0.0020505658603104837,0.0054613159883132555,0.009153063503341581
4.87,0.7976739136273534,0.045097374627055944,9.732060702919448,-0.0018026681351478824,-0.006858500663790296,-0.005133883818208229
4.88,0.7154867263452589,0.039980958501864,9.884531374968082,-0.003401709240807366,0.005335598056513375,-0.009067181408280719
4.89,0.8087423367876634,-0.059713001662873355,9.755285638537204,0.0007377715810607334,-0.006066766652471765,-0.0009165766258000583
4.9,0.7110224233531436,-0.029090960031175183,9.784261240354358,-0.0023884451136225444,-0.008750402631043519,0.0029741620426404444
4.91,0.7400521632935724,0.13673439981579888,9.779802540868893,-0.004769998196600732,0.001339215340692317,0.009354326045581026
4.92,0.775822747239147,-0.07078833931208293,9.740842284772995,-0.004790125309712741,0.002876163533294782,-0.0037058060983674113
4.93,0.6974076893084127,0.011218656721504832,9.886165906443853,-0.007805327150787275,0.008072799400668206,0.0008880624629317961
4.94,0.8489602550000044,-0.016528917558870666,9.87417447272762,0.0018982497693327222,-0.007036832519043163,-0.003513820140414136
4.95,0.7333017261171073,0.027006378442816868,9.79224797915562,-0.0023552862490045547,-0.0003151312235697956,0.004302536006538088
4.96,0.7504396653288009,0.11235449200776318,9.891436999390734,0.002410549006108744,-0.0022893607344001035,-0.003954298212111219
4.97,0.6215207389136388,-0.047329473149385244,9.812632306027384,-0.0019377303513579771,-0.000894803617064869,-0.002371368546664588
4.98,0.6748319643077999,0.02922287104334794,9.822969966971318,-0.001118671141373941,0.005722874301138108,-0.0027164149018169188
4.99,0.7389885911471428,0.05670157051574424,9.764429555741653,-0.004370029648045292,0.00178527037687279,-0.003785828228681275
5.0,0.7950184322788204,-0.026529833619060358,9.756619632718353,-0.0011213114202100328,-0.006408353391208669,0.00044653363541615235
5.01,0.8381150333173902,-0.06789910359799714,9.749802197142351,-0.001338197194520587,-0.004505359289635982,-0.002824132059378532
5.0200000000000005,0.639786332385787,0.008066965846814902,9.7906011321595,-0.0015616481004731481,0.009320579560029131,-0.002396051202787327
5.03,0.658070628183519,0.0018258215343509557,9.86881252759267,0.009278667244863903,0.0015211256463877056,-0.0058049982540239724
5.04,0.6253707278623584,-0.1310325675765797,9.74562772618225,0.00106551915522611,0.0014150693258509132,0.005642246377731804
5.05,0.7628054561298084,-0.06292261400627142,9.812248256569164,-0.0015059664778701582,0.005371370146610294,0.0047609647266622585
5.0600000000000005,0.8359397644756983,0.05808604818771736,9.942524205595255,-0.00569343671544112,-0.005518800862364346,-0.008568268982931504
5.07,0.7097917504485844,-0.03603871139523897,9.937593963581932,0.004596214196412694,-0.006498983196402829,0.005814512652401312
5.08,0.7266549550853489,0.036916588076473515,9.683737121686857,0.006847865193429032,0.010825353717944497,0.0031327358739174998
5.09,0.7321420369067037,-0.08404013055879954,10.0926385050668,0.0038327487378111897,-0.00017810087102785316,-0.007416497267494484
5.1000000000000005,0.6835678117732741,0.01002990859117471,9.88291347662423,-0.005789954048485587,-0.0027129987922540105,0.002886402746577822
5.11,0.6229417826551297,0.009887525163011088,9.747909348078766,-0.0022603223129822013,-0.002748809952295846,0.008704301334887506
5.12,0.8049957028393768,0.023931744694889758,9.582517261942762,-0.00363534569393267,-0.005905123531654467,0.004847417919422911
5.13,0.7320903784259506,-0.030175357425234958,9.91157800163491,0.005013929848000976,0.005129399937119931,-0.002963780805044968
5.14,0.6754463290083876,0.012704958059934877,9.856950126356875,-0.0028404782042662797,0.007525851359660574,-0.001654411702239573
5.15,0.9592607873760232,0.1516157196086722,9.695597987282987,0.0010141530474714697,0.007627344290113916,-0.0034434294341286714
5.16,0.7181728891842264,0.03355649525912474,9.819733415033426,-0.0032504454403224753,-0.0014116073124061596,0.001652744325060245
5.17,0.5809863903834173,0.11778440985266997,9.638668472718226,-0.005730179603607455,-0.0059730583696316845,-0.002286438363058248
5.18,0.7698802208025866,-0.013839595733666697,9.642560697366672,0.0034358600161723245,0.0021962931007273342,-0.001720488210336118
5.19,0.5697188832492481,-0.20724446028940385,9.771029905001692,0.002722321617616065,-0.00590353272064955,0.0003274866172467468
5.2,0.7538691041074106,0.06011095400639526,9.779899261221807,-7.961375571843268e-05,0.00661557405744034,0.001903795174226344
5.21,0.751290459561657,0.15722170824080753,9.985774516399335,-0.010002633430168596,-0.0063069960701797705,0.0019240688902362924
5.22,0.826068601920886,0.011042497037734389,9.807047817103996,-0.009699143330347902,-0.0002842995305082942,-0.002682291590639632
5.23,0.6350365205034042,-0.04565660220625806,9.751908197201864,-0.00022841012166865284,-0.0033000349241843335,0.0044833560162205474
5.24,0.6912710221970615,0.007114441207265259,9.718646411086576,-0.0019377482048987854,0.0022955919837055663,0.0021885104569695376
5.25,0.7087800928430789,0.09331440131655423,9.838832783874453,-0.006110915875522764,0.001420027152037511,-0.002852214914385372
5.26,0.7831077240338951,0.010914272429066531,9.506941097712794,0.0019676846944433057,-0.005450580492034357,-0.0015609503991802212
5.2700000000000005,0.7481271225626541,-0.05399312950469721,9.819992239712239,0.0019494216501727208,0.0016209292000903036,-0.004591511106541525
5.28,0.7544307601764308,-0.07896620096955272,10.01395441282039,0.0014209488611929772,0.0020483674300784027,-0.0070641813547751625
5.29,0.8099722931991623,0.05716423361803174,9.926837625884948,-0.008416766514682797,0.0030022042579607557,-0.005905676423912113
5.3,0.6942323362009444,0.25052550064643386,10.058967736384888,0.0004910440565816997,-0.0008154201372381961,-0.0026144874726332173
5.3100000000000005,0.828559718143862,-0.09358330855502596,9.722894016929237,0.007812183766823977,-0.005162403516679007,-0.004099754285568893
5.32,0.7040112924018809,0.05010650119965678,9.86186720455032,0.00326250085250962,0.00157506902289926,0.0006742070499540816
5.33,0.7822507925920282,0.05501976222207166,9.786876499013268,0.0013964086340972378,-0.002873636517409477,-0.00530915105136416
5.34,0.6705077660946319,-0.08970371731273724,9.952914356437054,0.007817969174419556,-0.005684034106815716,-0.009942990639790792
5.3500000000000005,0.7572855589143085,0.06444481451219528,9.794941535636157,-0.003645418316129098,0.0040369255138227355,-0.010085506669579272
5.36,0.8018685788440447,0.16287674844485564,9.934998876193543,-0.004224920121625295,0.004543680998989759,-0.006302551504345062
5.37,0.6221833399656648,0.07641298654117544,9.689671881026602,0.0009030872487568902,1.796413155191551e-05,0.00030118742671522155
5.38,0.7838289722439742,-0.029320465853133307,9.788867432713335,0.0030860642758390173,-0.00631093651956208,0.004561624488677204
5.39,0.7221125291591075,-0.1089185529990694,9.76971753870088,-0.005997707298524179,-0.002411739230831345,-0.0017670053786825884
5.4,0.8704140243296299,0.035824822978019345,9.953253318756682,0.002108516185680493,-0.007872213588538653,0.008091944864460672
5.41,0.6857604446156078,-0.011629598177684206,9.68755187886384,-0.001410755654844523,0.003953632630747881,-0.006153115953049522
5.42,0.7298802076511165,0.052602826360849717,9.750469947488597,-0.0026571334239026056,-0.011314740212489759,0.00418166015396376
5.43,0.6934427743952047,-0.023954427738673862,9.783534700996487,-0.005117536341832711,-0.005807214813604618,0.0027029555831336732
5.44,0.7584831730864527,-0.07317016166336951,9.581472203050705,-0.015657858022344408,-0.0011179811798651621,0.00891164947412598
5.45,0.5303262662703029,0.005812617189193816,9.770285927638668,-0.005031523479330173,-0.004452549463576064,0.004647624304792286
5.46,0.5916776043526314,0.09317476715724146,9.816932884023293,-0.005952862977985381,0.007119618662932513,0.0054609885508840085
5.47,0.757518048913919,0.06509289000062025,9.993765523023905,0.002596769302489467,-0.004834814314605893,-0.0004910019921798646
5.48,0.7056786177915805,-0.022530137173360224,9.768103702784044,-0.0013700358151560108,0.00044109533449177604,0.0015502315429024858
5.49,0.5428036356455519,-0.09433263512867887,9.790027727219373,-0.0026559646454728755,-0.002695157284619788,0.0036224268039473325
5.5,0.6518776878878583,-0.023215845951405086,9.738276516047435,0.011611505972173418,-0.00610473637689982,0.003754369407487332
5.51,0.6706981469397226,-0.025286087508832576,9.748145606157166,0.002644196971738417,0.0023441243184212216,0.0011880703001964348
5.5200000000000005,0.6628381339745514,-0.004039487754628728,9.770016657961905,-0.002742599779366884,0.0007220833829930462,-0.0014725214016126978
5.53,0.7756904449233823,0.15836803739361438,9.7946800083789,0.002771548915976274,0.0022941082733525025,-0.012051044443706947
5.54,0.8011943177032648,-0.02481349290943884,9.845457478974188,0.0009174264907412286,0.0011598262476352835,0.005271373646960469
5.55,0.5211741491119071,0.01057981111684188,9.879111540197682,4.865299853221063e-05,-0.002065460673268237,0.004681088294245236
5.5600000000000005,0.6901636355930065,0.06218030658970919,9.759554937772277,-0.0037272551023078337,-0.0076285350910104315,0.0031181582363011802
5.57,0.7083392154638989,0.04056784591390037,9.831339199371177,0.006527926486333443,-0.0017825097589761194,-0.0037468850961511853
5.58,0.5802254351475769,0.11725342264064267,9.751742014824313,0.006034478170901583,0.0025629807168752352,-0.0013657152499986017
5.59,0.7985207943760199,-0.043493854626655434,9.718703828550604,0.0012623936926819577,-0.004941551486275677,0.0016494425097889163
5.6000000000000005,0.7274650185934582,-0.053026894827999625,9.951184551345214,-0.009875135029393257,-0.004305758443008358,-0.000805577802617281
5.61,0.7653415384028518,-0.029420768582674138,9.806771535141152,0.0007937454219696788,-0.001987590413663781,0.0048557376530409205
5.62,0.6611505345566577,-0.07438228806950725,9.739026575767358,0.0008893171959731672,-0.002375547923224887,-0.0010465883846422946
5.63,0.6340124600870835,0.00434690111487959,9.838256972119932,0.00321191966215119,0.0019360129685790889,-0.0015644397547222287
5.64,0.650284255441556,0.01250100914626332,9.937069488640326,0.007286249790608409,-0.004659846025440035,0.0075503037201974255
5.65,0.6865468228213999,-0.02663203387471331,9.738124888659074,-0.007177377681139201,-0.006206136054691696,-0.00564636032692696
5.66,0.6608190832626759,0.0437589744067019,9.850973383849825,0.005978375097898273,-0.0029168759551443002,-0.0014782077614840423
5.67,0.7668137088479599,0.046062688788176695,9.873081967751126,-0.006956261681550524,-0.002579333774534093,-0.0012121855752892613
5.68,0.9071614857344596,-0.05840834842106297,9.827057732519402,0.0029423753289633137,0.0017470016872760828,-0.0033251908145282036
5.69,0.7399908878001991,0.04596520472279334,9.805887034304723,-0.006758916460453286,-0.0012680186731192542,0.009028702077019099
5.7,0.5371137032054586,-0.092290894853714,10.024667695774141,0.001550996356646448,-0.0055557656091299165,-0.007742738402919933
5.71,0.7048055526474746,-0.07421270286665345,9.765838612918715,-0.004965785785535039,-0.0015391239499714107,0.006044311821318564
5.72,0.5968816126119223,0.11446514434664326,9.799080322091783,-0.013267046113588707,0.0014097225988666758,-0.004853995772696444
5.73,0.6587967109127608,-0.018181815858731843,9.756651393840112,0.00347050025492821,0.0011600830895033608,0.010625471080954477
5.74,0.6880651438446378,-0.016191929960528945,9.85286919031977,0.0006527116042601669,0.007956337425640489,-0.00426792574574691
5.75,0.6696868937624565,0.13335700381896734,9.615810156719023,-0.001480285502395465,-0.009837952346202383,0.000786476210401393
5.76,0.6071171372579061,0.014030982402798644,9.93709801004195,-0.001289678112318838,0.002046723633200233,-0.0008344592851308798
5.7700000000000005,0.7311780477323772,-0.020704577556703307,9.648716339965711,0.007086628025745229,-0.0012283369506999446,0.0026783862670569903
5.78,0.5294130545910292,-0.07196895275664898,9.85821869080162,0.008137589381484225,0.008811874559631406,0.0019995255469653006
5.79,0.7193330970926576,0.03722718431870702,9.73663070898003,0.0007087862565832378,0.002072429323131029,0.008130345401959222
5.8,0.6157612625251987,0.11595846131435561,10.000042943425003,0.0004985209194789172,0.0007501976840880655,-0.0041821317348292655
5.8100000000000005,0.7097190338400795,-0.0053695674624806775,9.841773883714337,-0.0038904935807964488,0.0028565442118800113,-0.004507777070257823
5.82,0.5793464644336578,0.10309566886755081,9.521814172471153,0.0016073802279593008,-0.0014227597346608337,-0.00318352181385989
5.83,0.70493811367628,-0.011603474057416003,9.779444447874893,-0.004217526293608958,0.0120510622572796,0.0027165751920081634
5.84,0.7961005268647968,-0.060421850463081406,9.858789905385603,-0.006864006548802786,0.012470533612054588,0.0007438775255472905
5.8500000000000005,0.6378362781246343,-0.03887749983150289,9.771128005848574,-0.0035965350394927625,-0.0010039722952702506,0.0080383896741895
5.86,0.6355768666424418,-0.05959028649467331,9.68426032329752,-0.0035546895105873404,-0.0020822104428648435,0.0028106934697656534
5.87,0.7190009324458899,0.11018986542621033,9.490308370121431,-0.0011503142681435052,0.0068658019160422815,-0.003833481618797223
5.88,0.7007802099828617,0.0904921555733066,10.038881468684597,-0.003427048509020491,-0.001845461039468519,-0.0013359561051266037
5.89,0.5728488352143523,0.031188200211066733,10.125709747809015,0.0017329645904444976,-0.0009953322444074691,-0.0035924645099560046
5.9,0.7714899105094719,-0.18966613627886045,9.681709754861762,0.0025145722575347675,-0.003921682026046681,0.004205419668550576
5.91,0.7470870800000642,0.1182248644409135,9.836436787877286,-0.009609878388959887,0.0012363330882583527,-0.0003343648109450451
5.92,0.7844290966864306,-0.03051109590249195,9.750521097193328,0.0019119491705778622,0.002531808175173902,0.00017071202248701293
5.93,0.7250238852763523,-0.04975216216718021,9.926974191679156,0.010415295022245738,0.003226925531782142,0.009194813540868452
5.94,0.8318657662939837,-0.02664158094220464,9.771858600436198,0.0014635644636129266,-0.003023365292272343,-0.010351725549061053
5.95,0.5305205951793985,0.0031901430287033395,9.769830786290367,0.001857211634381602,0.0032060883247428825,-0.006277486868919193
5.96,0.8017301676679485,0.034432861072921706,9.647575291334176,0.000208137788467752,-0.007009276560732993,0.004156953434260079
5.97,0.648110299809262,0.08701675583649268,9.715479557576836,0.0033647249416164336,-0.009180799972606754,-0.007338251925219556
5.98,0.6352726885163839,0.04226446610342488,9.912134036522822,-0.010269921688517042,0.0018457650915258382,0.0019033171201108116
5.99,0.6211194751330456,0.002305999681991878,9.878335532637454,0.004351558098077627,-0.005481299376753059,-0.002266566251956999
6.0,0.7185084083697972,-0.029734902707138508,9.790777848784522,-0.0038521504955442093,-0.004599451580360455,-0.004710477036218761
6.01,0.7412637950661658,-0.07024064482129569,9.970999133363724,-0.006440563627574993,0.0019282590342775245,0.007287850580831058
6.0200000000000005,0.6394200926122279,0.030402431050363422,9.65476516234122,0.0044103032570457015,-0.0020372988885943204,-0.0005454958338864554
6.03,0.6980962800300065,0.04236862923885009,9.669448165871957,0.0019727147340510174,0.0007556629656319301,-0.004515739817465327
6.04,0.8967992387773879,-0.061088088377396446,9.786361630351458,0.0022499784957866436,0.0025772294473834375,-0.004709417550677106
6.05,0.6215825203099125,-0.08433090680285016,9.92576888555105,0.0006150852674237478,-0.001112195272132614,0.0023708766944049377
6.0600000000000005,0.6430947467673398,0.06269196880661983,10.002447691384692,-0.003291721039885778,0.009643546925085197,-0.006974119810259059
6.07,0.7877239371463999,-0.03375670990528945,9.519849639144516,0.009069471142409458,-0.00417435822307658,0.0027753076260445186
6.08,0.5475703302277919,-0.09342029921835744,9.728059187624703,-0.005424795446010559,-0.0037677814333878065,-0.004496092084461967
6.09,0.6926986400882001,-0.07573783209676965,9.959029135404473,-0.002597893268680202,-0.004758378758869259,0.010811721633004716
6.1000000000000005,0.47933475800667646,0.04129697316580536,9.644933432984278,0.005147867838247502,-0.0014433955152909534,0.004964101336688337
6.11,0.5616831423227905,0.12572891873612846,9.544904508267582,0.011310388142947252,0.005277153190851965,0.007586670169346395
6.12,0.5763128874825254,0.0812475884385999,9.77225539776007,0.006278389293331775,0.0072653416925866215,0.00493295718435894
6.13,0.6008738718694654,-0.15025049089197545,9.946885469480973,-0.0051647247300610375,0.007675653937151572,0.0002843325241416796
6.140000000000001,0.5706926574368167,-0.007697613271283609,9.83070646714509,0.0016030811022703063,-0.010326888759359802,-0.0038455718808510183
6.15,0.6860207778611892,0.06528039669085016,9.955475492417628,0.006227183257908025,0.00497827002216954,0.004019376871608546
6.16,0.7814025766238426,-0.1180608467769247,10.008236097724911,-0.007187683548134297,0.001199185034429306,-0.00024633638172609224
6.17,0.8320119566203613,0.1295060486263382,9.952302747773212,0.0036454189308708254,-0.0006704845202428164,-0.003819947284288664
6.18,0.5860049798288884,-0.14412089866536318,9.980443947532915,-0.003122701846106968,-0.012721610326874529,-0.0013866058389826821
6.19,0.7261034427099456,0.04838661752211675,9.616914378928023,-0.0008120569796154449,-0.006960461486804224,-0.002513364400446664
6.2,0.7639795731936493,-0.028041267157404546,9.741652666334408,0.013227535592987765,-0.004098808271640036,0.005069057692844789
6.21,0.6764422306741634,0.017461059054489678,9.692535501829058,0.0001794037906459254,0.0010767316742026104,0.004488666654391937
6.22,0.7229162300663127,0.006867208194748229,9.760790699816766,-0.011739021273937986,0.002897769923010502,-0.0050940741317555775
6.23,0.7025080438209609,-0.07002777266721792,9.925270084760038,0.0034094184732278337,0.001873525076692528,-0.008441224100136549
6.24,0.701854338783649,0.04286292740436129,9.906534685028074,0.007702283594572469,0.0036677932613222676,0.0006660393317858142
6.25,0.6057071444202082,-0.018136497463873594,9.778894294941463,0.011327116702008857,-0.003952330032106273,-0.0010453683016083421
6.26,0.5045890014908949,0.04665021069553371,9.955922198842673,0.005331740506109124,0.004485591016696061,0.002513039265959764
6.2700000000000005,0.6356732078882027,-0.052032379653952514,9.64640208886604,-0.004310356748842252,0.001786665133887488,0.014729239240494645
6.28,0.6016828597306169,-0.01952524910250813,10.081864170402385,0.00587684343211022,0.00363036507339778,0.016945540088564328
6.29,0.6402657832997818,0.044528421852625115,9.898583540612451,0.005678084228117343,0.003075255141353672,-0.0013941644706599089
6.3,0.7388746922577398,-0.057852930667481706,9.995300765236342,-0.002333345994704111,-0.005965905229750612,-0.0003536258835257821
6.3100000000000005,0.7762745535851465,0.0937101450320003,9.757192543260155,-0.002818901821798029,-0.0007754105209190551,0.001258182171594761
6.32,0.6729402489377678,0.023624970346817226,9.71106178448407,-0.002765577834915255,0.0047293338299277884,-0.0009086671123071492
6.33,0.5656208794761894,0.1586302439894004,9.982224062643162,-0.0023825316383264223,0.003733903743647842,0.000532077826811224
6.34,0.6286583918416562,-0.013124987856186984,9.825240334150296,-0.005475698333049013,-0.007450972242954784,-0.0019892949771584275
6.3500000000000005,0.5974705940804305,0.021853318819831265,9.741235391265807,0.008025205252889111,0.002535060392996205,0.003054144810184255
6.36,0.6686361000157456,-0.018042092397064075,9.818012572992776,-0.0010067091673591955,0.001804800436138806,0.004114976117892639
6.37,0.620836644841465,0.0004545415298651969,9.76839078806788,-0.0008356692407291074,-0.006960334374392875,-0.003999014558529953
6.38,0.7298467801484079,0.0444452381834385,9.844085815916713,-0.003995466491365783,0.012527817801779358,0.001567825165818907
6.390000000000001,0.589253572679844,0.12947262146991845,9.96054031936636,-0.0012171300622674562,-0.0067452187143761146,0.004050023874505859
6.4,0.8312199861134814,0.11447958728248873,9.811916707854179,0.002330348844631064,0.0006869412611406055,0.0022902865328183245
6.41,0.5382108967386549,0.06248321858690727,9.555394433737234,-0.005701104969594555,-8.15438541016108e-06,0.0005479139790122714
6.42,0.6799114006451042,-0.085392465687218,9.708541406896156,0.003857640850466443,0.004939495739286702,-0.013674535397761818
6.43,0.526064089823352,-0.029479617013064254,9.771123650306839,-0.001134008204203401,0.004481752430358011,0.008443430637492085
6.44,0.7381914031561803,0.0467574425104101,9.790067848033216,-0.005218460343011713,-0.0002894888496015767,0.003316089654058496
6.45,0.6575623586702618,-0.06367289686550823,9.566705063278235,0.0030637087444051825,-0.0061709634355298785,-0.005520648813847679
6.46,0.6697231510111747,-0.001318127661656322,9.750893022529986,-0.01065201017747001,-0.0022703540871691673,-0.004174443196151554
6.47,0.5809327257654142,0.012839846028056701,9.79644879193334,-0.010712384999365108,0.002187488003973897,-0.0013468877516738045
6.48,0.7390390426215654,0.1456293038710639,9.71981774719479,0.002906865826276651,0.0018444388653516145,0.004099809580258855
6.49,0.7030393222458752,-0.012576150209078625,9.80239990156022,-0.0015916407989208109,-4.8623734257724485e-05,-0.0009063966107843912
6.5,0.6074269419857709,-0.1258578420456319,9.96118434176574,0.004772154887110081,0.0035828594153313065,0.0024417452269367536
6.51,0.6491831703098981,0.061651682152412984,9.740792828040107,-0.006745258102443887,0.009984133650403832,-0.002360654704649537
6.5200000000000005,0.5787287069328375,0.08359059655650919,9.596857835752841,-0.0014855733247560853,0.008364769228104042,0.0004803456863797344
6.53,0.5718687967111821,0.18229000725434027,10.063560550025754,-0.0018663368306034202,0.00363053071199624,-0.005061288584714234
6.54,0.5996214854254673,-0.03521501874395632,9.733875588342537,-0.008470150196643784,-0.0036597705035370464,0.008798371519996115
6.55,0.6263744895090197,-0.10982538174647319,9.775780694594607,-0.004378589149533705,-0.0017816774160400832,0.000859358148083263
6.5600000000000005,0.6478745295446842,0.02820858174070892,9.810530404855324,0.0028539268703892916,0.0018302162428821224,-0.004544530592282853
6.57,0.643632060362995,0.04194813343474506,9.642337129588462,0.007802743489862261,-0.0005670677077726644,0.005889211694536036
6.58,0.5774052605846509,0.046272137444250204,9.835557763350286,-0.005766504273022274,0.0022797701243933103,0.0029848493882756993
6.59,0.7067857133426096,-0.03227736173760564,9.747986159706631,-0.0038982087177556195,0.0036231605209860775,-0.007061091959259235
6.6000000000000005,0.7326642781947991,0.0342611732628716,9.834946513427067,-0.005123418041344213,0.003522400488752508,-0.0073719054416947
6.61,0.7180320665702056,0.008531860873603105,9.87317946659304,0.0035709131018461533,-0.005380500681266988,0.003793307031613193
6.62,0.7008802701651331,-0.04505535609498095,9.949147733552797,-0.008833109155004354,-0.0015337142599600138,0.002632221096065862
6.63,0.4436191688001624,-0.08775219967467539,10.017016771940515,0.009400249558088726,-0.003929636354503913,-0.009087559329093654
6.640000000000001,0.5633840266341444,-0.025884946972341553,9.781091602599762,-0.005749973177975884,0.0030830524182950537,0.009744700949106028
6.65,0.5236270178537533,-0.0054007835611377805,9.738937945622398,-0.0033472036771516017,0.004784729323100376,0.00044028294220255877
6.66,0.5003240700535924,0.05494685892695048,9.659498361523072,0.002244523511277064,-0.0011534370710195292,-0.005390168612372842
6.67,0.7330846101852786,-0.0025197695245149426,9.873739540951487,0.0064542647602078155,-0.0022546007249639667,-0.0038858782152418584
6.68,0.7766185275085152,-0.04096387622726301,9.80790757862645,0.00097042091118218,-0.0006454793449108056,0.010254709471630034
6.69,0.6410476790656778,0.04294603534762723,9.786356054712922,0.0005049200124626026,3.48329325684891e-05,0.0050979317524756955
6.7,0.6775825416777499,-0.005804292159535908,9.65847538618838,0.00019763508173406566,0.003257104724565352,0.0017673298376947371
6.71,0.6105665538417377,-0.05559119825416633,9.726026793219928,0.004931527792755336,0.005337548208610171,-0.004351702286071416
6.72,0.7323172936575008,0.0272594408131031,9.87964874670482,-0.005453028130995027,-0.00578633800858261,0.0019293069210229706
6.73,0.6605763466775252,0.05344976988537626,9.917550580011198,0.007315591554201733,-0.008825804283834345,0.009294506217049456
6.74,0.5958919428263653,-0.007124052352130511,9.835984617365963,0.004464659315956681,-0.005954843951958274,-0.001805469465362208
6.75,0.6820198332274464,0.13199653607922007,9.815886421301334,-0.004602777824812427,0.006166490246154491,0.0037244734908655685
6.76,0.6219349532330436,0.09884591718259371,9.959682419578062,-0.001675032670241394,-9.606405151213391e-05,0.003979707152321845
6.7700000000000005,0.6515419366490278,0.041708038458853576,9.909559196286427,-0.001304927723491937,-0.004097884225076454,-0.0005687555008623325
6.78,0.6907900851054047,-0.02919769701592408,9.90893402885721,0.0015332963642976135,-0.005226639737286474,-0.0015164970237549046
6.79,0.9355638955766541,-0.14560831551613235,9.71247481767416,-0.00026885264518268373,9.424523679963599e-05,0.006327920245855637
6.8,0.7770757426158167,-0.09732179505856882,10.071818378837607,0.0028131426929541826,0.0024348166054526687,-0.005547452182429854
6.8100000000000005,0.6456063413597596,0.07121676591893591,9.992808035157447,-0.002458912674768001,0.001352769147928026,-0.0003495560306472963
6.82,0.5578522581854087,-0.07390256920088042,9.857594867111207,0.004294424178792092,0.0032885379688509203,-0.010298911070857526
6.83,0.4521729054625961,0.03280863184526346,9.728632592733783,0.0012142652372143356,0.0024116907007355574,-0.010333538024365574
6.84,0.7346196261073289,-0.07151213230648538,9.697032193525072,0.0017411414888163794,0.01377520115455864,-0.0025493313889808663
6.8500000000000005,0.7208893773845594,-0.014465876735146835,9.858803991136801,-0.0023680411001768876,0.001122764846197335,0.005181069754415779
6.86,0.580489669523977,-0.03843190937659044,9.838655072153303,0.004583588976956036,-0.004048237216753483,0.0016404879139857874
6.87,0.623141721651756,0.06691183162893179,9.778418794256787,-0.0018553215837020637,-0.0029087355815354933,0.0043026253211850525
6.88,0.6462104938550127,0.07252214135996353,9.680533693798516,0.01211204926128798,-0.0010705529618146243,-0.002996835892361928
6.890000000000001,0.6765168043030556,-0.12937702579695073,9.849713194311173,-0.0054671400473103315,0.005645859809551783,0.01087429008039876
6.9,0.7607720234642816,0.10795729169017473,9.7869539315446,-0.007500831559596212,-0.0016676665970218178,-0.011004995279060006
6.91,0.5235864429313152,-0.020939219517600093,9.62838651493245,0.0031757479502002753,-0.0032974867844167556,-0.0048701901744686305
6.92,0.6811419817871273,0.08686803873355058,9.807986748579879,-0.0030991768847956984,-0.00672142760229978,0.006066105359430767
6.93,0.6441738125402179,0.10523074027749228,9.919223150282658,0.003979224070733086,0.006772001023037254,-0.0026329644468500828
6.94,0.5852744038467029,-0.045100064374851714,9.84912636751015,0.001902109270259981,0.00221798516586856,0.0025110493426722634
6.95,0.6900188851254724,0.12960334860561995,9.767695545077496,-0.0023906658616526305,0.0029624623995580684,0.004346257417850911
6.96,0.6160143957945239,-0.14307566680887002,10.011480235580773,0.0012071889379758666,0.0012176917334560733,0.008986442787739364
6.97,0.6179010673750773,-0.08285693187568251,9.719857638545637,0.0039061802987394563,-0.004015631685586506,-0.0015950640889694342
6.98,0.6488513453917547,-0.03346580590733259,9.851599258530259,0.008259160923831554,0.013322586956872676,-0.002855602105358258
6.99,0.5865241086123913,-0.08263977597583795,9.744731097845637,0.002735776219316412,0.001972487020592643,0.002368201652856958
7.0,0.6749270951908173,-0.11571651834292725,9.816113768387549,-0.004036998896785641,0.002904821129156762,-0.00399130890340769
7.01,0.5901999808562275,0.08209016072949911,9.75582358890329,-0.008787406569645075,0.004207047199424878,0.009184248431246034
7.0200000000000005,0.756611464071071,-0.03579186260288452,9.959310668435943,-0.0020010962716119378,7.288986448631725e-05,-0.004544564185125554
7.03,0.6390779878747013,0.006269628198578259,9.844233013976911,0.0009464290344655446,-0.0006231062438547088,-0.004265032241029693
7.04,0.5666186915802914,0.054122318602516206,9.836213686616187,-0.0029696791135323092,-0.009957519997922602,-0.008545894360184002
7.05,0.6443339022925768,0.0872363323850252,9.761580396456269,-0.009882008816023406,-0.003477453237025991,-0.0015507161556912658
7.0600000000000005,0.6982010627015377,0.12412331400400271,9.788197571430707,0.0017351356005728244,0.004888256562415862,-0.007247160295321036
7.07,0.4924344463158563,-0.0698324246758436,9.892074060302111,0.005027824445904906,-0.0016131998661142477,0.0032499406186307345
7.08,0.7192220522969489,0.12377888521285746,9.894129056040548,0.0032292808166337846,0.0011599384669054617,0.0020124379733878505
7.09,0.6444875868277793,0.012934795597355471,9.836752372917958,0.0034828738271235377,0.012613461309097641,0.014087253070310453
7.1000000000000005,0.6142417179004253,0.013461752259590882,9.89420946384703,-0.0016710824839605818,0.007118186620127939,0.0002952408204938773
7.11,0.5611727296591208,-0.022283905019153255,9.972747467315688,0.0031348005113696776,-0.0034859075447535594,0.005926256723569524
7.12,0.6432463397585731,0.024705154702256295,9.875630286752575,0.002987840793510373,0.006153141358297253,-0.0033474127393199765
7.13,0.5441944852799492,0.12349622162269158,9.585099402159672,-0.01354010636427272,0.010123982979731829,-0.003338090361412526
7.140000000000001,0.4551532408020623,0.052599194795296025,9.834632292188807,-0.0004956698668761982,0.009459730947416348,-0.005060260458004732
7.15,0.5566519348378284,0.08790614838971825,10.046506937113335,0.0028897443932148427,0.010457742329220603,0.0015765351647490428
7.16,0.5912922947537462,-0.06960322182793051,9.923352831322942,0.010604564825286808,0.00047042030114189846,0.005309970376541671
7.17,0.6615493119959662,-0.03456635600258731,9.807043920236936,-0.0005953406068901133,-0.0038100958385499455,0.0010915713409199164
7.18,0.5943946583724484,0.006606860281611934,9.895805886707622,-0.01127197633543628,-0.004779716850484679,-0.0008840000697597534
7.19,0.5196919564956757,0.04034608287142823,9.7712997503634,0.0018906837607324432,0.008816401691730919,-0.0013514803198793356
7.2,0.5578107993901171,0.027658428533344572,9.87344529624285,-0.0036572619527260835,0.0014280976637308222,-0.003238424353377057
7.21,0.6117495233460989,0.14382830498064714,9.896093107542884,-0.008211320722902668,-0.003400443219590422,-0.005517498487673311
7.22,0.6611445464964806,-0.05326889314047092,9.985655215746537,0.0038175471977296596,-0.0035957603762683606,0.003789762095643465
7.23,0.6739493269935102,0.03730960131425078,9.614278997656436,-0.0034064613744001753,0.0016415712955616876,0.0028459401453349155
7.24,0.49933404725377195,0.04074490919576575,9.668967955740177,-0.0034021723053923765,-0.0049909636183302275,0.0038072451393462727
7.25,0.6117806152474311,-0.0320671567437027,9.758994500217247,-0.004309165022557792,-0.007202461525903487,-0.00426320141585508
7.26,0.6689815205266704,-0.0051987088466450525,9.893358396375419,-0.0033679626320504592,0.005353277175319753,-0.009640626751265455
7.2700000000000005,0.5366337259633506,-0.05304570405417927,9.926887820182653,0.007330603723807674,-0.003989673505977746,0.0012696247894381572
7.28,0.7498910068530584,0.023639904870295034,9.818933931825967,0.004060603160581114,-0.0011614576825833699,-0.00489318113116956
7.29,0.5657081422607348,-0.10548152482596519,9.576176139770832,0.008797805388342754,-0.0014005882813289366,-0.00202962160551221
7.3,0.6862571677263705,0.1353242828483776,9.95924066298427,0.010054365942814955,-0.00227786444198433,-0.010472323631582492
7.3100000000000005,0.6593462698569797,-0.019519620288290504,9.854780483958868,0.007998000651499347,-0.005447336660573644,0.009794316717652454
7.32,0.5484243275889974,-0.05707352700988836,9.859656080600242,0.0009746436934627996,-0.0002818671042943504,-0.006577006985298889
7.33,0.6041297492770253,-0.13899336928792994,9.525595618305106,0.00281285209456403,-0.005101724801552269,0.002771950599232086
7.34,0.7113571931346189,-0.028351290295327042,9.981936650795928,0.0005529353536224783,0.006627931566118199,-0.004324011687332731
7.3500000000000005,0.5586657202585078,-0.018957999141721683,9.785533699915293,-0.006424824260139757,-0.0030759276467522746,0.0017346740933324428
7.36,0.6151872304822829,0.024459077261116714,9.95248365603767,0.007273210655165441,-0.002391517990441019,-0.0010448408332490017
7.37,0.47994055111439815,-0.01677199205134044,9.902751288957845,0.0007336018985625052,-0.004377047742334588,-0.006542666430186959
7.38,0.6285483900212652,0.2317131172004688,9.730368586617827,-0.0003912600118970318,0.004235328010567341,-0.0015396885520377191
7.390000000000001,0.5668065195734396,-0.10161932534456554,9.855932798670047,0.004379885048405752,-0.007953458087834913,-0.00046834192254789056
7.4,0.6404640857693086,0.04912030748164942,9.938964832971356,-0.010896704027536711,0.0016698702217110806,-0.004750854833666725
7.41,0.5303909547069932,0.03247793604347802,9.599529500466963,0.003949157850673678,-0.01561072326722149,0.005245978945662526
7.42,0.6229038636569635,-0.10782093919537947,9.92498147313505,-0.007373982631656447,-0.002855686386443447,-0.004733946546887678
7.43,0.5686909045661073,-0.02605018423637541,9.649722996636665,0.0036191937105415806,0.0011215923430685309,0.004150724050338815
7.44,0.3850613416097406,0.18792789166214457,9.701919965299918,0.0019504928062984658,-0.002445854505862343,-0.004907932913010331
7.45,0.6025070275517777,-0.0418609160054662,9.670248769206767,0.002874025023440867,0.0026284074822818583,-0.0035054384296352237
7.46,0.6957465430950734,0.1616486418997536,10.08038296437636,-0.004848114143498762,0.0015612566410098,0.006526871005037643
7.47,0.5065272877633203,-0.008853041169753436,9.830327783373175,5.0180630731456224e-05,-0.0011741634003329133,-0.001369443107313273
7.48,0.5420588494120557,0.002598447325736736,9.57260008659643,-0.007236778078361324,0.005879929422714683,-0.0011387519789963017
7.49,0.6990320672699595,-0.029966969352202368,9.720703771215332,-0.00434727189375623,-0.008428077204025919,0.0037814251348525212
7.5,0.6369028931581888,-0.07942066875413764,9.723264414781942,0.004095073043090608,0.0008256694983445225,0.0030899399788750547
7.51,0.5654500182084505,-0.09709780065444655,9.819041552178275,-0.0006860209337355168,-0.006010129897133945,0.0063535938718960565
7.5200000000000005,0.6148033448652187,-0.04853122513728964,9.717938681131447,0.00429238949502645,-0.0044430401032085325,0.004585809568071692
7.53,0.5404666988102386,0.060209438443060696,9.630101932632302,0.005597452250936257,0.00048288442821038663,-0.002401016233776386
7.54,0.787615364187182,0.043298118842138925,9.973360932009895,0.002148889779124438,0.0004388803632068462,-0.003050278378496465
7.55,0.6602238470172267,-0.02965574573474229,9.795754250443757,0.006137075022427116,0.00411236250457343,0.001446190582428513
7.5600000000000005,0.7253551441358244,0.15034241171867072,9.785322810552264,-0.0013669579624482407,0.006519998961763779,-0.0031868965077754417
7.57,0.595379078003182,-0.06743847863053205,10.002473106439947,0.002642400068155897,-0.002914315336981745,0.007394877046492608
7.58,0.4854939843620988,0.03661926737865944,10.03464423178666,-0.002335016397189329,-0.0015507863356963199,-0.0010529105052914309
7.59,0.6270420591879967,-0.10465757222222498,9.797860965779524,-0.0043400320480988025,0.009340586480893956,0.003252547502122737
7.6000000000000005,0.6865574635740638,0.024161895569912533,9.673611605929596,0.0005755846368838795,-0.0026613691519239897,0.0027943583488897594
7.61,0.6892920538873719,0.04120290068238051,9.807320886113613,-0.005422859198494827,-0.006530489675360522,-0.003900308891347867
7.62,0.4498806364214518,-0.015727556292132225,10.083406232913456,0.0039750551165877905,0.004291434929372366,0.0005280467002195805
7.63,0.601179068556986,0.00357745613093631,9.70228331779061,-0.0010334875071187084,-0.00019854527569342954,0.0033511557497875703
7.640000000000001,0.4558031962420541,-0.038140350189310376,9.685272483863722,-0.01033476538021387,0.0020558949213902228,0.0038197625705124233
7.65,0.536134164774661,0.07444268863434444,9.834682908770997,0.0038093576973438365,0.0015934888930562133,0.002794609418345125
7.66,0.6292097913547908,0.06999969919030641,9.796815862851513,0.007924765994901543,-0.0032744235971238823,-0.0002271322927073759
7.67,0.6882560177187228,0.035065575406496886,9.841560288732394,-0.0009572462789015667,0.005904352753205796,-0.001632780815224761
7.68,0.5989122421821874,0.056025758690067526,9.832383704256307,-0.004388561261203025,-0.0034859163473172227,-0.007643047720311879
7.69,0.48866162266794166,0.04422603433071793,9.7906956280267,-0.0010531827906595987,-0.0005216440962193464,-0.006528976181147588
7.7,0.6277980648946178,-0.03283876635164744,9.744745295648835,-0.0030250449695817293,-0.0018189380394579957,0.004281959860539412
7.71,0.5111451717159774,0.028475121548676298,9.760776984678998,-0.004232860056451001,-0.005769945824758481,-0.0015621530824936882
7.72,0.5551950366141877,0.06030814870320401,9.676078162141426,0.003719143924783476,-0.0010073994103918518,0.002281587835374167
7.73,0.5851811954697079,-0.016352176930875546,9.778764514547628,-0.0036849270443392425,0.0016994575195053085,0.002687246118899318
7.74,0.5237221396150779,0.04560367727746941,9.791415827126974,-0.0045579894021202305,-0.003797877326630812,-0.010127570239973061
7.75,0.6275905440602128,-0.1057265960716837,9.767305739347949,0.002483196133717746,-0.0038759323617153212,-0.001267040242144567
7.76,0.6362344502870515,-0.09481425688313656,9.860304268023949,-0.0009043267549763101,0.0024136720031746346,-0.0028700869958111636
7.7700000000000005,0.6576553477845919,0.006642811723560805,9.780835051770167,-0.0008344312476741642,0.006089810148122408,0.00790097575928513
7.78,0.6887891190509641,-0.024996414191852695,9.826177456473932,0.002776290758056928,0.0061688092376154914,0.0017034857455449014
7.79,0.562670006865068,0.08804433881790115,9.803604730330154,-0.001014163414049618,0.003505952331278938,-0.002771948781311468
7.8,0.47532831738499376,-0.014745619622814617,9.817188945568354,-0.0048296389551534995,-0.004304658923552687,-0.0052674246734243126
7.8100000000000005,0.4824007376961108,0.09189024860917785,9.680333314735119,0.0011607754854504376,0.00041961267256645173,-0.011751937682852166
7.82,0.7110171879701229,-0.002093258089076764,9.690908707159524,-0.0012858740620537996,0.0043083309331861915,0.007730051266037711
7.83,0.700786524106675,0.028086636245888898,9.940082786622058,0.004985351957842762,-0.007009441077384075,0.0011208707628614528
7.84,0.6779908671909617,-0.033695373438144424,9.846790870229809,-0.0007419362135221844,0.006644649600435818,-0.00653437052554488
7.8500000000000005,0.5234387554460788,-0.009622151572108445,9.682662504976632,0.001942076314559958,0.0064157510738767996,-0.009490735646715893
7.86,0.7046846535016253,-0.058431175270906244,9.591834645913131,-0.001783613805053893,-0.005515412235679757,0.003286554438454509
7.87,0.5554179835079127,-0.08481719582276621,9.91385451719824,0.0014319440737755138,0.0042649772819383855,-0.004000342271292967
7.88,0.595794617721225,0.07440490984743092,9.885917778072065,-0.001104190042311937,-0.0013173202767830172,0.0016333459899496425
7.890000000000001,0.6338184808646696,0.08600500363088029,9.752376524250687,0.001402052356970755,-0.006251809175492054,0.0007910828050566382
7.9,0.6679555463727875,0.07447231109131269,9.81701877835467,-0.009289228108661448,0.0027392409114141425,-0.007957370400827387
7.91,0.6097105007425417,0.08868131009501865,9.830110198768896,0.003158063508586595,-0.0036786361047305405,0.0026975254375288665
7.92,0.675766237410499,0.017282144889067718,9.698684421973844,0.0046958334589622735,-0.004888262289963647,0.006207419231272451
7.930000000000001,0.566180773623766,-0.035165097260210824,9.80687160060215,-0.0052409032061892305,0.0006519433429114532,-0.004048991907557476
7.94,0.5482402694530039,-0.055917734620097165,9.795243305594694,-0.008495599964090099,0.00128463690697374,0.004787862139330314
7.95,0.53819438780224,-0.14042593197203382,9.691804487758828,-0.002088483742369166,0.0037727546756938526,-0.005305580984380723
7.96,0.47122249032678976,0.042850451206048606,9.831057808510769,0.0028593300958706094,-0.014828573698736854,0.0061921345649533265
7.97,0.33865798482368803,0.01025187423153266,9.84272108616873,-0.0028499193898254903,-0.005910483279500488,-0.002864708646587414
7.98,0.6451861343761259,0.030184804619813727,9.676387896780954,0.009417188088855149,0.0022758466271306055,-0.001044798358151586
7.99,0.5424919352933824,0.048175988145299595,9.910880635237945,0.013105944941241518,0.0034057420033422755,0.0016798703669106576
8.0,0.6200209878566867,0.11099235559333798,9.737712202396661,0.005531628514559848,0.006167990818704526,-0.003141363264896587
8.01,0.6077795064323941,-0.026273970561521254,9.72581311384918,-0.005367091973234167,-0.004925815805691117,0.0003185800894777055
8.02,0.5719119326145012,0.03820739215753697,9.895725883789813,-0.00038829918646963535,-0.003101735694236936,-0.004664910814578487
8.03,0.6341694847992679,-0.03976421316867258,9.891140634093416,0.006197875324577312,-0.0029489492307749584,-0.005648079792071368
8.040000000000001,0.6436771242404065,-0.1364533086261259,9.706822710404559,-0.0017522813522280226,-0.004471835609495193,-0.003990566772131518
8.05,0.4811642066568962,-0.014162301884454923,9.859059428437016,-6.314597875008902e-05,0.0028252609538951113,0.014945136075521552
8.06,0.679281005062579,0.11680751194224627,9.858005266393693,0.008835236055207123,-0.00645784426704538,-0.0009655651512217936
8.07,0.6251398891779223,-0.014698681808529743,9.75879344793544,0.0024011202369934883,0.0019833890653415003,-0.0030389704362569414
8.08,0.4852870212579805,-0.07100827074510664,9.87636804734606,0.004216230571346103,-0.0046906825709632895,-0.0029555006384392886
8.09,0.5027393674384487,0.030787421205306333,9.579236292446472,-0.0017103934846620166,-0.0032199731082233536,0.0072490161841897325
8.1,0.4545897790918085,0.07119999176420508,9.732787394735356,0.002294383192452634,0.00253996318578876,-0.0028502279646300723
8.11,0.6035855265080451,0.04093044122238895,9.910106595694405,0.013022379050445365,-0.00646642010330373,0.0043666522055209175
8.120000000000001,0.5385537112637516,0.10842900258746976,9.74930489103128,0.009780241638978034,0.002108561907866395,0.0010175382232433137
8.13,0.3526116114104969,-0.07483549815745338,9.678656463482085,-0.0016222804281288087,0.0031954323117753675,-0.00018995584543424362
8.14,0.5070374356783977,0.11112393401467603,9.485561039558549,0.00826967506700407,-0.002836947553076798,-0.003631941429242297
8.15,0.5202481448254694,-0.164238696566974,9.929610876182599,-0.0047750921775289645,0.007897228482809245,0.0025557998488706787
8.16,0.5585137714499389,-0.16244255241329053,9.72349078264333,0.007081126540615016,-0.001557224328070136,-0.007084431494276363
8.17,0.42626382155562204,-0.11704103016362914,9.621726945501303,0.005285867006262169,0.004505281417902275,-0.0034268680070611026
8.18,0.5580673688419466,0.03841579144713433,9.850575147634766,-0.004899630642193043,-0.003417589543070217,-0.0011245249479863368
8.19,0.6681307834048203,-0.12070586527586281,9.998060772727165,0.0005926413409888993,0.0024407435894288503,-0.002018768253631518
8.2,0.5623688697666237,-0.05106567771943497,9.815893406777773,0.010324095204489956,0.010203984415843118,0.0014837782452566048
8.21,0.5938997719209991,-0.03387420829915208,9.569758290628618,0.0017004020497530545,-0.0030150339657057925,0.005955103966604021
8.22,0.671149557946866,0.05970702221772306,9.71371090075708,0.0010593476179607039,-0.006942240793937042,-0.0029772326141055783
8.23,0.537849754617957,0.10225144923571174,9.925678020891995,0.00036035281165021604,0.0055661054587840975,-0.011934530383988744
8.24,0.53460187608836,0.07216606441461977,9.832334047831486,0.0018634995601565902,-5.267173271388838e-05,-0.0025467880021686424
8.25,0.5716684465532615,-0.11446268401883225,9.647417356906535,-0.0021415437841113493,0.005076433607691488,-2.3086406266467136e-05
8.26,0.47262445837124767,0.014294296779684808,10.111674102352039,-0.012225293784144642,-0.0003052525297705549,0.0027537284365700136
8.27,0.4871800198752087,-0.029638779339085534,9.737943001532175,-0.003342953675230648,-0.008745519840730768,0.0059427259646279386
8.28,0.37894007840865795,-0.013096905898261626,9.778362694810117,-0.002327821914389321,0.0011106891338626046,-0.009702758076288977
8.290000000000001,0.7244746695751689,-0.005256808478191272,9.76750697351411,0.005933259554938415,-0.006285534578873879,0.006671126642462223
8.3,0.6071934414320818,-0.037131936709232066,9.912232037981783,-0.003212703248323928,0.0019870330398439515,0.004250342627040138
8.31,0.4642804582978801,-0.05806006040023699,9.778969450978195,-0.006275624175072527,0.002895539722968244,0.0033879254430565567
8.32,0.6213045049731537,-0.035864366191162005,9.582612401071225,-0.009162674151945225,-0.002354779217453303,-0.0071486844920061335
8.33,0.47408066189174847,-0.055306837244833006,9.583544704512347,-0.010579471640074587,-0.0011552844835259364,-0.0015295935908078186
8.34,0.5434966882558612,0.08130104923650172,9.735936583397088,-0.0035151992967477085,-0.00437007002551326,-0.008185840009583356
8.35,0.5424182695165382,-0.005117293175923747,9.831093069795388,3.3586184685350953e-06,0.0030250403017620833,0.001785187634850146
8.36,0.5010121069278224,0.08082388607183308,9.744659551600341,-0.008329367463900714,0.003748370570058339,0.005177952421790844
8.370000000000001,0.47100595472956747,0.08743753369297247,9.879356656943726,0.01186759684963505,-0.003659803461111133,0.0031563758110420273
8.38,0.6320415572975842,0.11085467318409857,9.979275286824988,0.007985900101809912,0.003003884968484765,0.015231800640022823
8.39,0.541442334996222,-0.1006274937514004,9.6562626747869,-0.0013036612686067517,-0.0022889539274076657,-0.009152996140282414
8.4,0.6685616106256719,0.021020719276201114,9.831158722926084,-0.0002549865295075294,0.00022176187726494472,0.00148890082486298
8.41,0.45005454775633114,-0.09929130140385711,9.7462894853412,0.002691380197913323,-0.0008833420213936569,0.0015637579432355706
8.42,0.49482857384201984,0.14695351237007218,9.714145905457453,-0.001330681657801783,0.002909871829612674,-0.006743085804582473
8.43,0.5283219130304747,0.047109294339926396,9.741974680748987,-0.003469569543025781,0.0016375454773345025,0.003653532247049947
8.44,0.6195552826350111,-0.03755606111131224,9.891344221305587,-0.0007091317205493031,-0.001735557497629253,-0.0011175874645945553
8.45,0.46748283973707977,-0.025217202961542715,9.816743965828092,-0.004353449453487995,-0.0011569565576730852,0.00527772875241591
8.46,0.5756440073865575,0.06714756070873375,9.744336732589309,-0.0005352646360223516,-0.0013946946923843028,-0.0009179054521461038
8.47,0.5566942594022265,-0.029468868113749127,10.035676672035066,0.009060397880068596,0.0043431744076139036,0.004298602345521781
8.48,0.6428561819237238,-0.10857446971535538,9.763536902398544,0.002697359711756254,0.0027923465553287884,0.004337914451196975
8.49,0.5677374501703517,0.0359752773437819,9.848248408623597,0.008732915166715285,0.0010029814316314914,0.0010696737988012941
8.5,0.38351228977908614,0.09863311637631911,9.795238346037433,0.0069360637304824516,0.0007679976322752981,0.005171514022797339
8.51,0.44542289580068395,-0.00585047781694404,9.622338054255236,-0.001748826273543101,-0.00687495667808163,-0.0064614555291653275
8.52,0.4487916684010138,0.06001087485624505,9.770064515269913,0.008614519294347872,0.014194130780933937,0.0002569606112851943
8.53,0.488970804217001,-0.047322061604990556,9.737240908895444,-0.002678232036253145,0.0017768701686753494,-0.0033135733915311757
8.540000000000001,0.6304379452561675,0.010070582730774429,9.754199358817965,0.010013247853058611,-0.0038260147554834397,-0.006535977324264784
8.55,0.5025869500975264,0.007988373915751358,10.047398559962964,0.0006876185393974489,0.003452647647988695,-0.0002024368662191842
8.56,0.5258795888859976,-0.02802351266888525,9.73209461352134,0.007057820335287297,0.00042075220022339747,-0.0018617973389981489
8.57,0.504435173253786,-0.07556426381635761,9.817225578466674,0.013302570664529834,0.0020403097775982502,-0.003281780971809103
8.58,0.5648526630277513,-0.058372088644030956,9.904933290471497,-0.00526572742121644,-0.0056586036085030725,-0.014786724537497329
8.59,0.4633107560166105,-0.05481511216245969,9.714691985270163,0.006290404755252545,-0.0006454713598157562,0.0037556648204928557
8.6,0.5067235516674276,-0.03676616839527735,9.685915542065876,0.0010589604770511285,-0.012027148428506988,-0.0011842566521824633
8.61,0.505067668376207,-0.010940521567626251,9.840121773627418,-0.0007782945164026859,0.007135459106263991,0.004757047519405336
8.620000000000001,0.5133219054953291,0.011557830535671719,9.8101808433653,-0.0008477218862417993,-0.00017867634251265822,-0.0037725093908135
8.63,0.47304300738860544,0.011432992221683147,9.867229234218822,-0.004529250722906329,-0.0037590306610416,-0.0010224706613621
8.64,0.41081531181333897,-0.00820313262315697,9.608289889888368,0.0005589279475164416,-0.0013972092397779568,0.0017076260349499107
8.65,0.5915381218716214,0.0011854045904232339,10.001682356746363,-0.002190779231043798,0.0034649752438067572,0.009838807242587427
8.66,0.5069235824256696,-0.06852968369297523,9.813913278748188,0.006256140642452746,-0.005150617081300536,-0.0028783476602480752
8.67,0.6058257524303287,0.015280287340044706,9.929738421032893,0.006295182195617511,-0.008170745190879007,-0.001474668585486829
8.68,0.5532106388146045,-0.12528252820121819,10.09727559687956,0.00022738832365318975,-0.0013720039427890013,-0.0011128459224776122
8.69,0.5553344903694049,-0.08091603594100892,9.79001010781814,0.001618019122724401,0.0002859896401028195,-0.004065526958092388
8.700000000000001,0.6039213131237879,-0.08323899237774735,9.701736202344529,0.00873685416410753,-5.651923524577936e-05,0.0018377119680113992
8.71,0.7206067015639115,-0.04568375189083808,9.761623798351929,-0.0015389319346547654,0.0001868899840680251,-0.0037836972186053855
8.72,0.6163786878155615,0.023139726446308764,9.785367171068474,-0.006246837320449413,0.0033981400925968104,-0.004561783173692587
8.73,0.5822973970002305,0.013954748869338514,9.8270687956805,-0.0014552109684954145,0.008913393094107708,0.006429859285275756
8.74,0.5340748048715435,0.021858575947313757,9.960765918991168,-0.0038476281117997726,0.0021463140478013114,-0.007134621448702565
8.75,0.6106999479715068,0.06471560970034586,9.807696593712775,0.006424531532514583,0.00044129492401138786,0.00584148275558669
8.76,0.44957633977995837,0.01444285901128473,9.959368391283887,0.0013997832846379876,-0.0020828222098035055,-0.001383106557705253
8.77,0.5553817996178313,-0.08055603168557393,9.94692463331196,-0.001935902379437437,0.0022247338052884015,-0.0038312394392041173
8.78,0.6100810644448682,0.0023829097522732328,9.824496483974414,5.2767918626883354e-05,0.0005909996947267223,-0.007926113811786347
8.790000000000001,0.583397403557297,-0.07464344562813101,9.619505430452264,-0.00554391295090989,-0.00838692450790546,-0.0014638449655507
8.8,0.5004124064222127,-0.02677839222029701,9.913876611853283,-0.00045264272786416115,0.003653613581257421,-0.004368484079619576
8.81,0.5422432024080631,0.03183525415237035,9.890211296679556,-0.006669125369470417,-0.0026838031064119676,0.0019258781220914934
8.82,0.4787767095037138,-0.013513823162763346,9.779767988333703,0.008561369631325323,0.0005053315242702833,-0.005176372162915741
8.83,0.4429504154693202,0.05142323778965179,9.682534468736078,0.0020228923572858624,0.0005216514426636393,0.00016689321171283885
8.84,0.6197715412142335,0.000667641698983612,9.79884687337139,-0.0066937929468002255,0.0019819826252798515,-0.0023441773094387357
8.85,0.4682692276454678,-0.12114065946020691,9.865982350702843,-0.0023888474003283325,0.004501650272003822,0.0029048310043112324
8.86,0.4668904436946122,-0.03157956599943759,9.660959338580339,-0.005686201642851175,0.0075155152745575785,0.005241674856591881
8.870000000000001,0.46795031038228124,0.05082641182272688,9.66288642822022,-0.004212800320114635,-0.01093702333823347,0.0017785279456263951
8.88,0.44522773995887144,0.03652148377788604,10.1799901185126,0.0013369620105163377,-0.004656265169970453,0.009117043472666394
8.89,0.4422179651353686,-0.0857292027358297,9.669644209309231,-0.000544833072011928,-0.00017545453192494804,0.0016979206547134533
8.9,0.36147173820327405,-0.03682620778988811,9.721765646136195,0.006130215005186614,0.001443713940504787,0.00040132650804272337
8.91,0.37461638298502564,0.016541552128058856,10.000422120221382,-0.007227814252714462,-9.615537459153144e-05,0.006718113999359534
8.92,0.482669671653754,-0.041774202639337496,9.690233420308802,-0.0033371337093367186,0.000652845249251169,-0.015416133220893798
8.93,0.533888815940114,-0.027130130257191062,9.682709537149117,0.007124002755023481,-0.0005311033001266831,-0.0008157827469664965
8.94,0.3625758776744871,0.01990839689954569,9.919077462624939,0.002602248339368073,0.0014866170063940838,0.00209149638126568
8.950000000000001,0.5105150544715676,0.14661270422670558,9.584169932168441,-0.005823177291880164,0.006631316543488819,0.005793920181687211
8.96,0.5979038560940539,0.02479857764682008,9.744695777919803,0.0016901011511352216,0.0077842164986865504,0.00014667115736329627
8.97,0.4568277014546487,0.05545365224643305,9.886281199482736,-0.0023274802896348155,0.0013819603623020976,0.006013613897364294
8.98,0.414696459999611,-0.07096084399184788,9.9883523973453,-0.002064977945715715,-0.002407043235717597,-0.0052846627539536095
8.99,0.48832122061877414,-0.09959346231641447,9.86753930328291,-5.587064909950064e-05,0.0010515654338218395,-0.005161613950242901
9.0,0.5339579922663444,-0.07003410857821474,9.862810360052615,-0.00994417269308891,-0.0018399024585791365,0.0012954412855034289
9.01,0.4469684843520752,-0.01403807908209061,9.825154999682109,0.008537637364906231,0.003926921179651103,0.01196506312511999
9.02,0.5672303697845341,0.018147501416612005,9.963373315110685,-0.002407523685109588,0.002353829520738464,-0.0005344850711594811
9.03,0.5278357111274129,0.03843641390034646,9.962907107170983,0.012508707536098434,0.003029565176606314,-0.011746034114854633
9.040000000000001,0.6280616562806656,0.07130818340319636,9.859341158394592,-0.0030862638960854616,-0.0075023452472410025,0.0065375500086769615
9.05,0.35435348635595454,0.10060951274632332,9.82787057359967,-0.004040831767679966,0.0021296845623555902,-0.000751167547816435
9.06,0.3752162149472495,-0.16638726111503827,9.690153640327173,-0.001987637385702803,-0.004802387033154867,-0.002443738033499922
9.07,0.4539644303805638,-0.07847798286777569,9.71262930461944,0.0002603220274254215,-0.001630804688490422,0.0025638551664038107
9.08,0.37959940044779705,0.13306939844868165,9.576465459846816,-0.008682469219730383,-0.007277224177083195,0.003784561173354514
9.09,0.6119235745065787,0.027926980598165518,9.782736211634731,-0.0051484950059572975,-0.007795695360089449,0.0014336661484731586
9.1,0.5039248959625668,-0.008542517547944358,9.671772354074403,-0.0009031307256563653,0.004256206335306236,-0.013131016086188961
9.11,0.45818914738169925,-0.17826315847188576,9.710046069555018,-0.008695753918372224,0.0025930494346754086,0.0026877613792621663
9.120000000000001,0.6081612721509527,-0.1036268440448463,9.949604100571698,0.003873822109827817,0.0030533302121986657,0.00030746032502811343
9.13,0.5065570791512923,0.07077895038734341,9.911122019354776,-0.0030125655737935847,-0.009368049495051003,0.009688522156993241
9.14,0.4657237094689499,-0.03747513543692894,9.73084034949085,-0.004874345359014035,0.005859508087196166,-0.0030470409814737204
9.15,0.4191819453561224,0.04358124704145066,9.758849048474403,-0.0011975239508073365,-0.004100020387344776,0.00032829077104591626
9.16,0.5254620562999633,-0.03203843699002101,10.073435323734367,0.00244712177047183,-0.008624169673802263,0.002520679067715101
9.17,0.522056381695877,0.1745548045075798,9.705473099026692,0.008236573643190769,0.002586473716159109,0.004015437286641918
9.18,0.534105913570946,-0.0035253307261779673,9.890742323997587,-0.0008871999777956596,-0.0026207940545895786,0.0012260678009149068
9.19,0.543333317777881,-0.11919494134869535,9.992190299337706,-0.0054538620367469,-0.0013828049353081368,-0.008399430411901075
9.200000000000001,0.5941650237141585,0.04643208667221142,9.834536677956548,-0.005727180249847055,0.005876479592361149,-0.012404119452225557
9.21,0.4111613576969482,0.005987065678093041,9.855817058414422,0.0037284033444492356,0.01005305136217036,0.0012402592119871226
9.22,0.6556203111873395,-0.049805808577377944,9.602921426462517,-0.0048021111755622535,0.0030743161769386153,-0.007201187897500227
