ts,ax,ay,az,gx,gy,gz
0.0,1.3363604959569917,0.03302248435789348,9.722585176854992,0.005111745498998656,-0.01020660750691739,-0.0021174626418491425
0.01,0.9961035944007319,0.14185588503664484,9.829654570121093,0.0004323936336150941,0.0018158353585095628,0.003188404196129306
0.02,1.4019185286181237,-0.12191770150047199,9.818718664191886,-0.008094234321941693,0.0010258673419363698,0.0008458889737292007
0.03,1.1820837810303797,-0.014702113860756878,9.898760191817319,0.0003205778800985906,0.007641186209789767,0.0027582432350556785
0.04,1.1992868269877501,-0.008206823576375534,9.699422188777614,-0.001901114702377371,0.0037493594449447736,-0.0038312282247239013
0.05,1.1831716652869213,-0.039449255835216135,9.69170625433468,0.004889119929953832,0.00030606472640139703,0.0017254259013851508
0.06,1.2892123428631506,-0.004839829287588455,10.02618156089829,-0.011310657644770341,-0.003039743589155646,0.00862151223912047
0.07,1.1516415072051247,0.04923363878002637,9.876902125088236,-0.00018744370490206332,0.004788551849678749,0.00459775930976033
0.08,1.167266844216841,-0.03398995553083708,9.88952832198291,0.006713379012845934,0.005245180447439002,-0.0008671348942649868
0.09,1.204366190818832,0.07089045202607933,9.684728671053882,0.0014826310909393907,-0.0036336639569475395,-0.0001744658219247682
0.1,1.3133187090832736,-0.1780312266028977,9.814536003527886,-0.008987682895787486,-0.008093286862868278,-0.0029014458082843642
0.11,1.3870939147131158,-0.13673097073436433,9.893597402949794,0.0007737830523214497,0.0005252817352495446,-0.0012852611517263776
0.12,1.2028689141842848,0.18658191419361284,10.041330684663842,-0.007945738988097157,-0.004535303156794396,0.003506322545106161
0.13,1.1478671787757935,-0.00668461833749122,9.960810992019276,0.008175702048034996,-0.000509459756892011,-0.007839096137277606
0.14,1.2807915665095682,0.05362736429620189,9.940911173863022,0.010149711129053624,-0.003200685472156521,0.003666777355186955
0.15,1.3593212052357795,0.021745188106760065,9.857448139845205,0.001049897002625632,0.00267643640182439,-0.002954894607756553
0.16,1.1149780357909882,-0.047788315163911584,9.728657700257259,-0.0016302014613237797,0.00041528101440737935,-0.004844459532331338
0.17,1.2642754320128233,-0.01609726594909914,9.881477391586163,0.003979077618671991,0.0004945929584705751,0.004367148214792599
0.18,1.3935957787236704,0.09503099450235397,9.976589059136664,-0.0009161234654786772,0.0017670903431767427,-0.0008886308019829828
0.19,1.2235190937345906,-0.016952325944262082,9.862022585052307,-0.001020630612778696,-0.007049353413504319,0.0037056072224817918
0.2,1.263121217202392,0.08271367507588502,9.921833952098558,-0.0005984828948965799,0.0065713517432458325,0.0030963936387804836
0.21,1.2480277913487308,0.06982074619693508,10.088064263316012,-0.005571492440048531,-0.007622944405858394,0.00370768144407537
0.22,1.208445981189486,0.0873889252678616,9.833631563730657,0.0007945970601020855,0.000804929779007505,0.01113283069121271
0.23,1.4423695273289674,0.04524204070629247,9.72827422022818,0.0030090249768995624,0.004979450955588988,0.002551146906592159
0.24,1.2623669509346624,0.04962470340726825,9.790329223749284,0.0041578550285996906,-0.0037951922523905036,-0.0028736520601752853
0.25,1.2844103390844317,-0.11128522768562098,9.884094117265418,0.008944769062050264,-0.0011677189915318255,0.00670693715978946
0.26,1.0853267467666148,0.07031439629713536,9.882468599617985,-0.002713567520317765,-0.002797592937854091,0.006285403221180185
0.27,1.205917844184284,-0.09693297582124927,9.68391179197447,-0.002681325717489917,-0.0020057188198424453,-0.0016942617518859678
0.28,1.2876271179413457,0.12374485526157568,9.824719962940355,0.002019202302794254,-0.0025123245456323785,0.0010509833188721042
0.29,1.18475808822204,0.10164452086805847,9.915618705369798,0.004107780775724206,0.0012832385098096829,-0.0006962652852009859
0.3,1.3171226120235129,0.04853245088267325,9.820669809248637,0.012775354999557545,0.007707510490439538,0.0017971384901902376
0.31,1.1782269609027718,0.08978273451625315,9.716222173861508,-0.013131038729359019,0.00401224297052693,-0.0010071690038498196
0.32,1.2330836703563908,-0.13097472801845467,9.742018872985328,-0.003147294265576887,0.0014214455729226047,0.0013257734764008087
0.33,1.3460199664797239,-0.043324362427360034,9.729615607566519,0.0030052303808817296,0.002273408795701727,0.008729101908362201
0.34,1.2175632748267617,-0.014641417351211446,9.790471947083898,1.4525301801846015e-05,0.008692058193131536,0.005496941566786341
0.35000000000000003,1.312153762875346,0.092005039258974,9.942195013640086,0.004789933144248884,0.0034589513954839056,0.005764627695583459
0.36,1.2760832095778272,-0.10525561805199718,9.886390786651612,-0.001958609392445377,0.00101880970875963,-0.007065739064576224
0.37,1.1584190401654777,-0.04580867158191192,9.682807856859135,0.008292219198273198,0.002073554080046614,0.011746652809304536
0.38,1.1419462462375922,-0.13514935305241255,9.528049539023613,0.004973681749524195,4.280823562223827e-05,0.0027048493613302184
0.39,1.3458909883378016,-0.17125136492534523,9.566918812842035,0.0015864703494957563,0.005473853505145089,-0.005048688344907406
0.4,1.2795725461952274,-0.012356178633979196,9.743128707380992,-0.0005112728287897265,-0.00016623405777168963,-0.0007837531588464605
0.41000000000000003,1.16786847952702,-0.008115116528044206,9.793789393944909,0.000997798147147786,0.007600874328427578,-0.009282748006712454
0.42,1.200536657360055,0.09638917717966682,9.76425077502136,-0.006452348566324912,0.0041320523679590285,-0.003051698396859398
0.43,1.1433149462224816,0.03158229279469675,9.948815882716154,-0.008337064011020105,-0.002620700738609463,0.006939764224493902
0.44,1.0752573584572074,-0.011830018088356438,9.920142191022817,-0.0026256872692632578,-0.0014868229606916977,-0.008270163354814982
0.45,1.2544982268328793,-0.037669489560564866,10.180329244826067,0.0027114729078377814,-0.0012280688052955767,-0.00015668487310010828
0.46,1.2104916711570937,-0.04725068107235237,9.884249258547902,0.0036812249247423563,-0.003006688584219951,0.0038461840163683645
0.47000000000000003,1.1469147152011252,0.016860193411871144,10.048187188977646,0.00789739613088363,0.000542102117618844,0.0010665483317533028
0.48,1.054404126921169,-0.02180657251629485,9.873237687774441,0.0066748810437940245,0.0016192707762711523,-0.004322925854794964
0.49,1.2578187126889493,-0.031859783582244644,9.774322236905036,0.006372707306318582,0.0032129518784255115,-0.008409393923408228
0.5,1.3010757475873098,0.022768222273442856,9.561252266335346,0.007286970659750865,0.0005699807559355142,-0.0031827990250053785
0.51,1.1955845655483044,0.08350698208129091,9.84521601709889,-0.007552253733372635,0.0014963062672329415,0.0018609319030494648
0.52,1.2744846721921212,0.05165172607852382,9.829240787366565,-0.0002620643228071465,-0.0023243515108463046,-0.0039065613220919965
0.53,1.2415320581905784,-0.029701169907185805,9.80553884986212,0.00893582678797036,0.0017642807458333354,0.0019983744185484388
0.54,1.2422691289652688,0.12945657332398816,9.674019139483141,0.008700873900108262,0.0016340080314037656,-0.004368388137820009
0.55,1.2493992792756319,-0.05010744976982785,9.790299591280585,0.00023755060698193192,0.0031096228898117085,0.008226337506243358
0.56,1.2557388999694188,-0.041602247990404975,9.847850008069155,-0.005794267975685235,-0.0005994742315649336,-0.0006348770490174627
0.5700000000000001,1.2491088568237632,0.07536778118726187,9.723795260732137,0.004919806000029254,0.0027337394188175386,0.003402305042644858
0.58,1.2550115005646885,0.08565895996280837,9.709073896302685,-0.009080518784223706,-0.0035657054658572176,0.0019647610912544656
0.59,1.2433144834494496,-0.09310482642339456,9.654773260377715,0.002451356251924248,0.0006702116374402631,0.007574656911529636
0.6,1.3390068621207516,-0.011268166891693758,9.70596174048648,0.0019254265113757964,-0.007471206234562604,0.0016856196328862488
0.61,1.1806620468111444,-0.014769331988756764,9.83014250680278,-0.003225752000857025,0.0018987400889281842,-0.00910441494614311
0.62,1.1406062472168386,-0.034305503184938926,9.97383095627021,-0.004272681168837163,0.006991884365822388,0.0032049693328381162
0.63,1.186376618489364,-0.005609737519717301,9.82780798234667,0.006951181813584249,-0.0008459813708909257,0.006982411734907007
0.64,1.1321175798739973,0.03363185135436261,9.640195049439328,-0.003214498622966537,0.0017506482331882244,0.0015962144487369268
0.65,1.1674294860689163,-0.16838079557423552,9.780099853778742,0.0076556493114066405,-0.011637998618447958,0.0016292321961848704
0.66,1.1029613182157016,0.010484647487454521,9.680304369282721,0.005480719809019123,-0.005128651879815003,-0.002545392860027991
0.67,1.2341555490946143,-0.026915302689975135,9.656267660174214,-0.007388522431604249,0.002405048393904082,-0.0021183681121754146
0.68,1.2251008251639877,-0.11389061387625221,9.85124586118153,-0.0017664206932547243,0.00672944904486815,0.0011528067066896627
0.6900000000000001,1.2639128848184829,-0.0805864775839829,9.784850752989067,-0.009393884048369876,0.001381982688937184,-0.004801119659002183
0.7000000000000001,1.1627173296633089,-0.06022957916497193,9.802816104738959,-0.00465370214481979,-0.005964630800807993,0.00040195537493083243
0.71,1.35710045477464,0.0031541256883410754,9.595747281311956,-0.0029222875279155897,-0.002339761563544128,0.003024963991289286
0.72,1.2705891169317152,-0.017953801534949385,9.885513464898434,0.005485374038402621,-0.0072004350634079705,-0.012811894105891664
0.73,1.1208613802625522,-0.04993266564178331,9.891305559494551,0.0015324315548647036,-0.008794484647710609,-0.0068993321247764
0.74,1.1137045380660928,-0.07831842681811432,9.563165378824014,-0.0025110439914284967,0.004084643095750422,0.006229008936854815
0.75,1.1786335983155867,-0.06368331023346911,10.019190297709395,-0.003037393098997512,-0.0038034042557282574,-0.005563149099254775
0.76,1.1155686204433322,0.05158283407104363,9.84024358634674,-1.511389466363436e-05,-0.0013009421645286561,-0.004384067840171451
0.77,1.2314548966586767,-0.06159122944466227,9.831707675403164,0.0067441037061921425,-0.014031874801939487,-0.0026067106842344603
0.78,1.23194246205515,-0.05566623482485099,9.965566035302723,0.005930940280955841,-0.004662604801633562,0.008563650676298445
0.79,1.1579434126467427,0.02042390136368956,10.034152216265387,-0.0022345128563047694,0.0029458000828742744,0.0017872165109903834
0.8,1.1681507798680761,-0.09286829659450875,9.71110503541736,0.0019031863766266722,0.001093247847343593,-0.006833086589131982
0.81,1.1676636234272795,0.007322899835106157,9.859275367050897,0.0005063450036198274,0.004772239057925571,0.006875350051493697
0.8200000000000001,1.2339091572951386,0.003281129268869271,9.879024346351002,0.0026799923098959617,-0.013218636851644682,-0.002701933331933494
0.8300000000000001,1.226333807663823,-0.011628874249211867,9.765154632267356,-0.0025106558106402703,-0.009587366011702176,0.001694530150580743
0.84,1.165349173335921,-0.09206298404883483,9.69271300595859,0.0025199779808493493,0.004803623743036642,-0.0021285459684005983
0.85,1.1923641909028573,-0.11962749359452224,9.781225924158138,-0.0005557845241480745,0.0020248504754476543,-0.0029222104464860822
0.86,1.0917747682248224,-0.0026064846163699213,9.851411667936786,-0.010702407817570477,-0.0023897961349347296,-0.00551306031678468
0.87,1.1628376891582417,-0.05793696821488917,9.633349795108856,0.00039100573659970196,0.004980124655296654,-0.007862063021697424
0.88,1.2657985272423111,-0.17709883228070541,9.847640883221834,-0.004882271920024674,0.005988849727601782,0.002720487061052878
0.89,1.1983670577496985,0.08281572828192617,10.064285830792144,0.0032448492258473054,0.0016632832903445596,0.0008093192318013461
0.9,1.0885882949651462,0.08239716953782018,9.93579129320049,-0.003069991650242304,-0.004254232401154432,-0.0007608756611430094
0.91,1.2056728246952246,-0.04512935348465427,9.818002344520723,0.011934508703221238,-0.002173527973126413,-0.00559341332649959
0.92,1.2715617450595424,0.03386503619237599,9.706155648664424,0.007918444497540984,0.0004617941779716067,0.003940437774629093
0.93,1.311123795745636,-0.060599211665494146,9.911814770830105,0.0006222651114580724,0.003331184135606142,0.012474481117816174
0.9400000000000001,1.0916447872906767,-0.10781577075190216,9.778050645399043,-0.006708552254357378,0.006138685937322015,-0.0047024959251635
0.9500000000000001,1.253677036148745,0.09938544854924324,9.90563521444132,0.004319801010007926,-0.006324580549024218,0.001575218168263542
0.96,1.2680177594567672,0.029745853324395638,9.74944093716785,0.002485519604655305,-0.0028828234632837318,-0.0031781005044174923
0.97,1.2164268992717795,0.07116523623168342,9.51772526456483,0.00569935541740225,-0.0035013038134981303,-0.005790841717756915
0.98,1.2553105872237873,0.06824672246895962,9.723755279747502,-0.0033549555000807318,0.0043315057598444714,0.0009095325180215473
0.99,1.0933129760752291,-0.06902677966018043,9.831430800198289,0.01008038996567709,-0.0013413395237117595,8.878524329371974e-05
1.0,1.2347387453470244,-0.2408522118918558,9.625341051009421,-0.004415534467003907,-0.00833914410432756,-0.0018765478338410983
1.01,1.1659099914960014,0.10926673587033396,9.819030352275243,-0.008465468620579822,0.0003247032375810626,-0.003505052084940505
1.02,1.1362749165944095,-0.1708575427871817,9.958768018026726,-4.383259540612672e-05,0.004564780703604573,-0.005130820131864175
1.03,1.3435690885013571,-0.0370713422363536,9.739055244430556,0.005057243033432662,0.0017926181138269567,-0.0007397993058862583
1.04,1.289324912789234,-0.11236997554902801,9.876572979705108,-0.0005270392307638122,0.006853078248581585,-0.008954149399493943
1.05,1.084316343914592,-0.06839820197866474,9.724420212876035,2.1268419061294733e-05,0.0038250285837159743,0.0016278559043040094
1.06,1.4379001441967407,0.11263328687095461,9.70031986064377,-0.002798251249339122,0.011116435489151222,0.00260804487065794
1.07,1.2579250120463217,0.07578933216082846,10.091366824838099,-0.0008066935217366138,8.4846149321381e-05,-0.009293384326182597
1.08,1.1200061874029301,-0.07112846547732284,9.519769306884484,0.0017555658987924386,-0.0005619790791956328,0.0021244514571990025
1.09,1.2006654240214663,0.14294340403033423,9.716568552198563,-0.006470595070841468,-0.010892871529111389,-0.0027247144090776975
1.1,1.3022447883948134,0.005783584452741525,10.01292328807604,0.006199730194882823,0.0012690348317763356,0.001510054334574129
1.11,1.2952655667991348,0.03047384884152044,9.784141274630867,-0.008127951488400053,0.0008458214313902248,-0.003616787592160241
1.12,1.1455858951815314,0.046387004129692454,9.566346065349737,0.006437864505798489,-0.003238384980976102,0.0009500759155757169
1.1300000000000001,1.2072046105556542,-0.09601468413804835,9.71983894148778,0.004673622045716173,-0.011132207516224003,-0.0016822512950350472
1.1400000000000001,1.3217250050856102,0.03238049558907697,9.778765944167422,-0.001293710174433259,-0.0007330815354563712,-0.0009952512354146623
1.1500000000000001,1.2706769954307053,0.1817108067550194,9.945968117290406,-0.004038912564380289,-0.004413265769947289,-0.007345368884028713
1.16,1.2653310510891551,-0.05778440662724799,9.723561117879367,0.002670239008064307,-0.0026293693546278894,0.00323677147761481
1.17,1.2241271929848243,0.020092807961392692,9.901872897691812,-0.001842220997855886,-0.0035795247367483725,0.006539154034428704
1.18,0.9822177684663744,0.13806296798019566,9.950939816279465,-0.006065524840402366,-0.004309499310869467,-0.0017867472388372776
1.19,1.2400956884483743,0.08304468672778208,9.703071422538644,0.00030797061260035106,0.0014507204802242425,0.0014469691693491102
1.2,1.1371489807445696,-0.0133354276593708,9.788245828110012,-0.010092305244477833,-0.008165350398402795,0.0029552004229101785
1.21,1.2365379970612176,-0.08351768379919688,9.850142741219265,0.004475987666386364,-0.0019953545528419224,0.0007671098363859614
1.22,0.9268879205499592,0.002656197024417871,9.788116442592479,0.003524634878873329,-0.0016656610683687726,0.002677425117482043
1.23,1.141819108757907,-0.02941858853107878,9.763911928100773,0.003918207782777789,-0.00038361693403757855,-0.0063671906094959355
1.24,1.317302230801857,-0.04998217810885354,9.757216599792685,-0.005323739267168123,0.0065913184720936945,-0.001018586630116554
1.25,1.1939975775570548,-0.08458543916045423,9.783294010188277,0.004333736218993398,0.00033025546839896675,0.003012496725660858
1.26,1.1955689157623084,-0.029661729901424582,9.519447609258691,0.004105636483020567,0.00147129457387155,-0.011977544478104275
1.27,1.2602672885777184,0.029167969556248105,9.75921828674454,0.0045804275976492614,0.0017971044818254544,0.005228576139692218
1.28,1.1866304703521064,-0.15532621012436204,9.70609185749329,0.004665308419477578,-0.007303343066226744,-0.006108742960122976
1.29,1.2489617622329954,-0.052611854669963785,9.67826162907768,-0.0019405436857501382,0.00838402873758838,-0.006444876140175911
1.3,1.1152982182777338,-0.01903269147681034,9.85602325007807,-0.003940080383660349,-0.005860438205771379,0.0001432158499850025
1.31,1.1385121655864339,0.0355489011459186,9.824454711488123,0.001768481867136943,-0.0006725880920736536,0.006518922227743537
1.32,1.3447557446608684,0.062313620332531905,9.717717944870047,-0.0014484704131136712,-0.0002837397673514942,-0.0049436343554986
1.33,1.2036283174773041,0.035798663347748685,10.161631296781174,0.0016332437743549414,0.0031355172708062307,-0.005165881333779519
1.34,1.3807253215467763,0.004068171886603338,9.99705548982331,0.00700351904153677,0.0052326742360375815,0.007561612496380581
1.35,1.2168958086694495,0.005219170137509015,9.808787466715012,0.009222855445736923,-0.0028095453200986894,-0.0004550444357383412
1.36,1.1546900122925474,-0.0683364406291162,9.723651778478425,0.001627179334808353,0.0015245647207935043,0.0011121846028427644
1.37,1.1078029810254333,-0.019258491813683803,9.883649618672235,0.0025023616634217787,-0.0001285737905479307,0.0026915324806960255
1.3800000000000001,1.3129563497957255,-0.005363715732271691,9.706999834981305,-0.0037174296810030837,0.0046876927226838965,-7.496857906035611e-05
1.3900000000000001,1.231333400122158,-0.004932897032042836,9.751320623207565,0.005952786269648367,-0.0014113109517375974,-0.0007188020717750654
1.4000000000000001,1.1584470697551723,0.0782519774297352,9.750634672327273,-0.0054179110886961295,0.0031957454436062427,-6.281019478158053e-05
1.41,1.2796642908291385,-0.04082552680192451,9.759221593360172,0.001095290895334931,-0.0013494481093822683,0.000743708203476893
1.42,1.3047639037766379,0.04084333128990987,9.896630197950838,-0.0002211510611648115,0.002984341285734874,0.001186389063514211
1.43,1.1662923652580408,-0.1657259427756149,9.846077286132534,-0.0029866495697931663,0.0027629981527647024,-0.006708580712454595
1.44,1.4056730272277487,0.2280297367033936,9.74638127715989,-0.00047127302151622557,-0.0006419001898431639,0.005043144540508668
1.45,1.2162182292615389,0.02354827317859322,9.669924892489698,0.0018585343776729639,0.008903373537302443,0.0016771326874399934
1.46,1.2019715222525063,0.017342983061707763,9.706048034876993,0.0012685555626933778,-2.9160491149647335e-05,-0.003996483449755562
1.47,1.3797816523292157,-0.07048153098646669,9.675654792436845,-0.0002819902493547172,-0.00969904977273566,-0.0025580188879407674
1.48,1.282128608648948,0.007789995361947405,9.72608235430912,0.00497093949887308,0.0029268583795792652,-0.0034653200515026377
1.49,1.2510516488973766,0.02486886260352957,10.087696053366736,-0.0002592402687032867,-0.000641301979387756,-0.0016263560066480036
1.5,1.3670103402045197,-0.18027645782148397,9.560663666172573,-0.0002699126714980303,-0.0051722437737954175,-0.007780739298889894
1.51,1.1830811867365048,0.026671655353511604,9.853626432323301,-0.004229067879354316,0.004356371537627347,0.0002970496668929506
1.52,1.2108472042553982,-0.05871303051004383,9.998900996793916,-0.0018988929255430022,-0.0028539020991314285,-0.0002516494109868539
1.53,1.22405307742758,-0.18567141204706103,10.083680821323124,-0.0016292133856149024,-0.0002951381064440858,0.005258785255063577
1.54,1.2710307378355554,-0.1416134666531875,9.64357501683983,0.004330872892939037,-0.002704065457099056,0.005362905511738585
1.55,1.0529706819092504,-0.08029175149387306,9.679465522428005,0.0011499459111855687,-0.00024366061423488985,-0.006123208820031196
1.56,1.1517538216157113,0.02122103679459523,9.737337637816633,-0.005199692452357892,0.0019415083250383283,0.007532199272270968
1.57,1.0880802789372368,0.16771658737816902,9.885345248659714,0.009953722954202916,0.00023683520390440117,-0.0007141544308364925
1.58,1.1429752542695018,0.021491977686120427,9.655415268721578,0.000998120931031353,0.004714995065822761,-0.004291016590337671
1.59,1.2829787158495067,0.17533768204276623,10.04725742114225,0.0018548423927525288,-0.0004822986232395842,-0.0009957548927143744
1.6,1.2633072816084878,0.06665545947001761,9.641202189820522,0.002949462489403923,-0.007654241213761709,0.005580010442391712
1.61,1.212685324426168,0.01265716486896599,9.846087873915309,-0.006641387701130659,-0.01230256318536252,0.0004703566134504263
1.62,1.2986080407230962,0.05072195414444354,9.728376334898613,-0.0026655641562017404,0.003475999617235274,-0.006155634087788582
1.6300000000000001,1.2417051326853892,-0.15333963215728336,9.721013346394441,-0.002666005154886434,-0.009852792703148037,-0.003465720809344305
1.6400000000000001,1.2691116897597066,-0.03819459894817227,9.900142116236657,-0.008375313592567638,-0.005914498508073655,-0.0034267313248548814
1.6500000000000001,1.1781260235202193,-0.11599992199773848,9.965203537727575,-0.004510091637212444,-0.001980403003759873,0.006000452130809555
1.6600000000000001,1.0761461015419844,0.0246029668682209,9.77305427425461,-0.01262066363341008,0.007326680717917212,0.009695615573267105
1.67,1.3734341918035813,0.10866089736780334,9.88640453986071,0.005322677159337337,-0.00664638222115188,0.008300212539872693
1.68,1.150233602042807,-0.007304108535305467,9.882544970979527,0.0011018412056570928,0.0025207641077927717,-0.0013757292166227545
1.69,1.1093137967013063,0.0521025516702302,9.698675060834654,-0.008189891123966942,0.009796666785935326,-0.003442484107154759
1.7,1.1951862884276605,-0.04516466439002339,9.867009543343446,-0.0016409458385674394,-0.0027167866945674024,0.0011599787022770237
1.71,1.1604839356426697,0.18857076166102282,9.659843501859024,-0.0018150246843062737,-0.007982157134309165,-0.00010962266987160766
1.72,1.235850207119862,0.05272431511549038,9.923399513731095,0.0034693788020678357,0.0006776432835796896,-0.013039756083533003
1.73,1.1498740145733717,0.029539906886486306,9.806863283592477,-0.0007930853145743928,-0.008822902271678205,-0.0037398161266179813
1.74,1.1776620633768398,0.06454624247751022,9.874457440753654,-0.00489964219062594,0.0008517219125204437,-0.0026128565891251265
1.75,1.1204073534073609,0.005966000307421402,9.728067227463884,-0.002214601060713244,0.004719946821049811,-0.004832795477514803
1.76,1.1879651558190392,-0.16540228676069785,9.784283955515694,1.330793920243398e-05,0.002098403876076281,-0.0030772139900234995
1.77,1.1191261964996309,0.05958995238059932,9.864475902047886,0.0018858558004027054,0.0060411305597141895,-0.0021799356706773115
1.78,1.1838621798777929,0.026812930584155185,9.713412892217624,0.002125238476491488,-0.005089464915594407,0.0017316289248972244
1.79,1.1683738932104977,-0.06033146556903689,9.77775213863018,0.001603538870285129,-0.002871589420301299,0.0020022946799044144
1.8,1.205591188214583,-0.09752707777764777,9.890799572388804,-4.771768624178263e-07,0.0008709140719590071,0.004274918454290627
1.81,1.1294012758985064,0.0727097999048676,9.802551077073844,0.0006880877832229615,-0.001403349266400079,-0.0040269102213749295
1.82,1.1117064169417459,0.027110417223521935,9.810568858561727,0.008497063672075119,0.006242157262094835,0.0008886457217009658
1.83,1.1460744702838215,-0.0010656579821928785,9.695606794177857,-0.000718738430770262,0.006807749935815891,-0.008035708758001052
1.84,1.0591763143099164,0.1506321772625354,9.803523876751875,0.005545631993781008,0.0060639960417471,0.0030755407502532075
1.85,1.159012557637194,-0.05805642755317906,9.982431647858643,-0.0066441536381980845,0.008512980067900099,0.005823691416195273
1.86,1.0230381117888596,-0.06785216109830303,9.793270530568064,-0.003915651305219202,0.00954211283247572,-0.0028612587732525785
1.87,1.154840815978536,0.1144603664715228,9.719600841326383,-0.004069651353556331,0.0065510274984334725,0.007814855231805147
1.8800000000000001,1.2495265696831106,0.046190171889079694,9.6186457133932,-0.002103699332765195,0.0003008753824826344,-0.0012623658398848692
1.8900000000000001,1.2393609243880415,0.05138269286609513,9.851850297346617,0.001417162759022509,-0.008824925407142678,-0.004006682087052518
1.9000000000000001,1.2102841522881864,-0.04422242992609887,9.862550325760818,0.0018455378567332518,0.0035386762304548255,-0.004963611287688159
1.9100000000000001,1.1413835603572615,-0.043149725144383214,9.802233164635368,0.004834341517760312,-0.008427311733084083,-0.002170015306616395
1.92,1.268080598411787,-0.09087283418217897,9.828770857184848,-0.008368892524420702,0.0013815232231647245,0.0023440515279410435
1.93,1.080853699026009,0.0297966498540195,9.5983085122718,-0.002735746796782273,0.004030756398485321,0.004821959109422539
1.94,1.1583290157909456,0.11747691065691317,9.844283376851058,0.003111365689822626,0.0005902336436808974,0.00026897648865218976
1.95,1.1478647020637647,-0.09605208353526776,9.968954231239433,0.00616646355453374,0.0007757793780926868,-0.0074638884116144345
1.96,1.2079024715140434,0.06085739064261369,9.599932437445803,0.0010094632215217523,-0.00352290255029334,0.0022830960278664766
1.97,1.1598613562396718,0.0327355803438668,9.904493062325457,-0.0037120530621506725,0.0044769103824777,-0.006229268660493058
1.98,1.18470382832604,0.010491722251417576,9.765783139491692,0.0007790193714274973,-0.007241888417368858,-0.003349644727264705
1.99,1.153554270516293,0.054665390231878455,10.029344751145503,-0.005386065327728846,-0.0062836536236252636,-0.0033814857953801043
2.0,1.3246569567571078,-0.0856122832372851,9.728787087803358,0.005624639324684175,-0.005054680212101896,0.002324167434515279
2.0100000000000002,1.1831682496408535,0.04536069484429289,9.889283055913358,-0.0034618339328102766,0.0014134492355212577,-0.00259042796806332
2.02,1.041156587471183,0.009858247866452122,9.908302591692687,-0.002454745518767971,-0.0016690583892076502,0.0017180359056876958
2.0300000000000002,1.3111553553541526,0.021456740338391903,9.882289841829767,0.008244219592655085,-0.008544585819533554,-0.008990616829224755
2.04,1.1942453861994617,-0.01014701066716176,9.853667755932905,0.0056645585267916,0.0024497352099806104,-0.002758773629348107
2.05,1.3464749817784964,0.14456060834445755,9.630982144038207,0.004032313631185297,0.00041784908614261006,0.0038375382034561345
2.06,1.2702684169950593,-0.014139064049682341,9.684241748626862,0.005557923865537352,-0.004185168816294937,0.006113501854875798
2.07,1.0828753514599014,-0.06379355624523347,9.876438479753954,-0.0024151450993632815,0.0007791823425691522,0.0031728270542274485
2.08,1.0690035605515706,-0.01908053738298165,9.882170431042578,-0.0009368146081789292,0.0003469281600569194,-0.009021970103105976
2.09,1.285791712923669,-0.020553737730812198,9.807705394196445,0.008291537424782409,0.0008739580383587756,-0.007933515297362987
2.1,1.2089028875164776,-0.05706097979362079,9.850993899786902,0.01371920117878072,-0.011867016965053122,0.00022308278382671948
2.11,1.044029654665071,0.0752503824607413,10.160551074172607,0.0015939117110269868,-0.0036002836213834106,-0.005088028077940543
2.12,1.1112727896362076,0.042801334274611844,9.782997128268931,-0.005471097175024423,-0.0029400749614882766,0.00113040270032174
2.13,1.096576823325843,-0.04851309308656911,9.890236609586669,0.0001408729379324896,-0.003590758931126315,0.0015433302931001024
2.14,1.1391105509610855,0.02629222668219594,9.823889367511144,-0.0073544650094469,-0.001785295615216592,0.0024817314230356174
2.15,1.1311097928258569,-0.03636159434899822,9.76789734119375,0.004528238122027558,0.0019392848843470055,-0.002881553085624027
2.16,1.3190479992133268,-0.01962317102653846,9.996213344249878,0.010935639718087363,0.009573597186170391,0.0010831366485955327
2.17,1.0835863326410544,-0.10510200275274105,9.89383536122035,-0.0006016564473712365,-0.009941449017209123,0.00910362620972448
2.18,1.099162176770736,0.024882162211099543,9.605143104561243,0.0028170565493018523,0.004233552852095192,0.005136992658606901
2.19,1.1390729731081228,0.00788855773671145,9.788398955904825,0.0030724156012157527,-0.007277689874801214,0.0017613876071655898
2.2,1.2258972102868364,-0.13699928278756496,9.788241668997022,-0.0027694815631002546,0.003400273993488953,0.003212944715116875
2.21,1.2102600629130114,-0.027947168477782957,9.861719068816033,0.008366929478225605,-0.00321925859442452,-0.010606356565749011
2.22,1.145728617976073,0.046076702656932304,9.709483685647431,-0.0017177464282559737,0.007449261506164242,-0.011775549791889599
2.23,1.1854739121258973,0.054628695632883056,9.731258429327703,0.007090882486110345,0.00031962054424051486,0.004249189324630797
2.24,1.2559757276008852,0.03560815307235569,9.590279083884571,0.0070794279204893515,0.008471221299756148,-0.005258963177685047
2.25,1.1068528993937556,-0.02523649961602492,9.867603118598662,-0.008668259381892217,0.005872663420385939,0.003382429984075618
2.2600000000000002,1.2472763085633043,-0.09025276243351424,9.668139724836232,0.008182182005035682,-0.0006289444340382313,-0.006811920262167478
2.27,1.2451073101406485,-0.059050690822063066,9.771326978247622,0.0007588587518114758,0.006159080823352795,-0.001527479940987237
2.2800000000000002,1.0706077731022674,-0.06261671744929143,9.94171275907133,-0.0021197189790955547,-0.004315290642006321,0.005881825587682278
2.29,1.2714599805147706,0.009127798948070196,9.847904560173985,-0.004713716527412135,-0.0019488191477950861,-0.011470956298509381
2.3000000000000003,1.2446904125461213,0.0035665696416574307,9.625172273692696,-0.007135131885639598,0.004053515571915087,-0.004553478379712383
2.31,1.25375022494294,0.10407408940851118,9.932090963479277,-0.00569283562176452,0.0015592413391986757,-8.686923456663002e-05
2.32,1.0521243667690574,-0.05310061092670797,9.624113503088127,-0.0032062721178337254,-0.0012465041195045628,0.004757501728734583
2.33,1.3085955804900455,0.08645794333773217,9.879924652468091,0.0022646726338862895,-0.0007073126158196796,0.00461047377824485
2.34,1.2105151860037942,0.014745056531430536,9.847545451752232,-0.0035891474106722623,0.0022344295131363373,-0.0003449247571418409
2.35,1.248314837903644,0.019235415450320693,9.970349442032237,-0.0007631557416714609,-0.0010266631747607227,-0.0056966506097574825
2.36,1.2851371466002282,0.16956881018316908,9.615160932050086,0.005484548074736932,0.0022099472550948756,0.0020420125424049722
2.37,1.210294253296455,-0.05927387580917229,9.87216300420429,0.006849059989515792,0.0016634795789736753,-0.0014770999531039794
2.38,1.2906372521671272,0.1766586952025854,9.838145066212595,-0.004498754472190958,-0.004528953166614058,0.006858075001120852
2.39,1.1772946933331776,-0.0715760532752121,9.780867342413268,0.009746982367595294,-0.004621619099000976,-0.0019113253829551827
2.4,1.1156904359678368,0.09973451592727964,9.704387113361575,-0.002385646659363407,-0.005782907028133261,0.001671152253227823
2.41,1.172384604513335,0.03212351425009503,9.715484889681772,-0.003408150281449363,0.01181425744611033,0.0024194424841784265
2.42,1.2254931148711474,-0.11735035923406063,9.875409881773365,-0.0005865224505252203,0.0051237277914661416,0.0041191569660993495
2.43,1.1889461951601894,0.08221330221182672,9.90027795665029,-0.0009332731167078297,-0.0006018264106069155,0.00993928213478519
2.44,1.3240129679651926,0.060821588162471636,9.960066664315528,-0.00530080076852145,-0.004482882297864751,-0.009468155830634742
2.45,1.241054218614924,0.057130584765948386,9.703734675842147,0.002956858237540858,-0.001704289485094343,0.008240168000149527
2.46,1.0413683572740626,-0.01705145626429075,9.904498771813302,0.0007045490110657611,-0.0033793107961972604,-0.0007393981373691723
2.47,1.2384332981767927,0.0019798973474594163,9.966898835827003,0.0013969437954881208,-0.002924580875225674,0.00020830962830596813
2.48,1.3502475038581376,-0.04555491912198682,9.75936984511918,0.006438512870520031,8.885945651782526e-05,-0.007278912985735615
2.49,1.2634321508505069,-0.06280487968081107,9.806420934469818,0.002442109202290105,0.0037457039842947342,-0.0011092864247519772
2.5,1.3267574740746162,-0.044067265298778045,10.096211167710118,0.002285105192263845,-0.005359965934449321,-0.0070210562688898396
2.5100000000000002,1.3656098661316285,-0.06476222307902775,9.677434706487416,0.0006273383373625686,0.0007744781818731292,-0.006411851058145437
2.52,1.0218766245400506,0.026144559261240735,9.673325803339461,-0.0031650960968460863,0.0073382528777798176,0.0028343065862093514
2.5300000000000002,1.325179800393057,0.06542103090668358,9.888447559397012,0.004035426325535815,0.0004855785416527319,0.00014169275324956535
2.54,1.2424231207344165,0.03009053030394604,9.91784616555897,0.0021000163375337576,-0.004976963230455258,0.005961668949373561
2.5500000000000003,1.1681190629859874,0.08075714451186057,9.740319988055862,-0.001052334839424372,-0.005527460906631773,0.003960413810748451
2.56,1.2737804006069258,0.0006388715342136065,9.950834166281924,0.003756182120692425,0.0017179720443047822,-0.0014575790515619156
2.57,1.3559780009802427,0.09178003887440024,9.876083454568235,0.0014456409435384021,-0.003579013111127343,-0.0027380861345398717
2.58,1.2504115910711064,0.047468691492939925,9.842252275827446,0.0013335026793044667,0.0026258606330058867,-0.0009867211711122603
2.59,1.2025609219771747,-0.18923313100252984,9.926654857470432,0.0036022338824196975,0.0056387623780358,0.003767807934927563
2.6,1.3840175295083035,0.07140837474385134,9.824819674982677,0.008244964782797251,0.0027502802084913482,-0.00722085920692502
2.61,1.300566940434634,-0.11517499111656884,9.857387163010133,0.0002596717487846622,-0.009405234975250316,-0.0006397512778684089
2.62,1.2407432286960904,0.08892224650167103,9.651454388255893,0.007523073955744696,-0.003395649845225243,0.001852130481090076
2.63,1.2094122071933806,-0.008339355992150226,9.875815138346812,0.0022506415269151103,0.0024364187987899744,0.0039855059100948765
2.64,1.1857232046841046,0.012056405988098557,9.606929795653945,0.004036671078583757,0.004440892442355606,0.0007310467745809528
2.65,1.0092515044626305,-0.027200984454637478,9.642864950600789,0.00047645124801426193,0.0071737589987799985,0.0014195618911534802
2.66,1.0919474143572365,0.05162334240101524,9.797377556218546,0.002313213648702093,0.0006551300020604068,-0.0002968307539146841
2.67,1.2815927638904296,-0.0573763542625781,9.73423859864866,0.005775169499213241,-0.002380809328130749,0.004239501182020866
2.68,1.2478085687366645,-0.00870533177256335,10.050097897553572,-0.0027488476737986397,0.002575490926341221,-0.003862108263561318
2.69,1.2365782073278557,0.07383784802157066,9.752786836660652,0.004669157469486221,-0.0033563769319902327,-0.006218501252356464
2.7,1.1538096759339578,0.04106117867290643,9.99005482178443,-0.004818956692905729,-0.000880693541234205,-0.0039019676213104073
2.71,1.2859370002776838,-0.16879164826271026,9.674278434274427,0.00835966065646967,0.0018780485352593204,0.004175394932285584
2.72,1.18072009151221,-0.01927984697442507,9.608585891466703,0.0049758949590309595,-0.016554489644668477,-0.0023254101889818423
2.73,1.1056269001673409,0.09882392487581344,9.853832807527498,-0.0014836534822635329,0.002737687528790547,-0.001467150743977143
2.74,1.25934602756302,-0.02280412250439223,9.866859637321705,-0.003050415183791285,-0.0024477907398121153,0.0021385832318468892
2.75,1.2080710298201127,-0.00917172593733914,9.710894133813994,0.012823500237905754,0.003764365359611482,0.002846021366553607
2.7600000000000002,1.2165058438185195,-0.057457889953021354,9.822257871523073,-0.010728036896720706,-0.0051976394368106835,0.0034887473252263675
2.77,1.2016461845268578,0.012605704436105758,9.844103728220118,0.0012928156981764469,0.0016436385348850148,0.0036823229677596337
2.7800000000000002,1.1626307887165819,-0.032259050912932734,10.239605906637571,0.00034074080563188913,0.009392866287844633,0.003551623483582666
2.79,1.2660892443255591,0.07462695250552026,9.76589170287023,0.0035729533674470518,-0.0028008601262117894,0.006203538032896934
2.8000000000000003,1.4218223143330788,0.047596368383462054,9.883951262045082,0.006208779675629153,0.0037909022619986997,-0.0074593462664910935
2.81,1.2034655675948298,0.09957985190346319,9.634707839544463,-0.0014548699664906515,0.0029822091557991036,0.005170288082677284
2.82,1.1300847998735568,0.05322368968289176,9.723946464950293,-0.007722642091284711,0.006133119998478025,-0.002089019521723283
2.83,1.1540050600259404,0.009031444843661305,9.92331477598727,0.010185509534440182,0.007020458863769748,-0.0056755602870096926
2.84,1.1796236000217255,0.036216232752042575,9.937621296532235,0.008447408271157992,0.0006682827222421864,0.003679038167575171
2.85,1.1393321607711904,-0.06771568466023879,9.668330371890708,-0.007285712708414247,0.0007791505379778648,-0.004417318212452945
2.86,1.2642442853859504,0.09674456429231096,9.805832666580066,-0.00753376214070591,-0.0010616032654065688,0.001264175590941632
2.87,1.239110595660091,0.06008539972350093,9.872981061858232,0.00949652964720557,-0.002100525956913635,0.00020950390266318513
2.88,1.2431798551928017,-0.05312562295584365,9.88467447261416,-0.0010781666423763383,0.00028550368600262135,0.0058289359405478145
2.89,1.2139669462088363,-0.06848407774208924,9.620771714940611,-0.0050557966839074285,0.0052546117267230135,0.0026235618235304382
2.9,1.2199113518435305,-0.006698262079426539,9.883112788198336,0.0033341768880268048,-0.007008126606339526,0.0005679978826766581
2.91,1.0906782013216265,0.05389866757685973,9.814269074607235,0.007133923703340388,0.00022418847978646354,0.005374264686424787
2.92,1.1272357363850014,-0.025547553333701033,9.891724314702593,-0.007174394714240977,-0.0010290089571504933,0.0013794097695617171
2.93,1.2394397981939047,-0.0021706546296683354,9.733111024986279,0.0035754802404877133,-0.011077659797569493,0.007430975705707797
2.94,1.1218359887874751,-0.09083775823270125,9.876236045547708,0.005723493749976888,0.00032686895565378995,-0.0008112665707613591
2.95,1.0724619983305868,0.09982880780176906,9.799278766733877,-0.003884837301813588,-0.010348283296843895,-0.003568238875777854
2.96,1.2229088318449315,0.016401520763639793,9.823051199603743,-0.007388987406485866,0.0064819298746790766,-0.004682178390070969
2.97,1.2100938484118384,-0.10965506906928033,9.781724598773907,-0.004883306738949416,0.00446737519176158,-0.001798551657847854
2.98,1.1781712735815033,0.07092324250826107,9.972561851681942,0.0022980384042409893,0.000415858229007956,0.003970976461487146
2.99,1.1720591889324223,0.037021769232879524,9.586493163493916,-0.0028111862952599135,0.0009394823240552077,-0.004686967846598958
3.0,1.161724720577815,-0.09644902369728754,9.879158573047105,0.0034377371663398826,0.006716505607233017,0.006417114752158437
3.0100000000000002,1.1358207772788604,-0.0675202548660117,9.755087849768518,0.011879629277137933,0.00468798463065393,0.0006714894163261058
3.02,1.2682784995643983,0.06797465764439814,10.049916427990809,-0.005893869785516223,-0.004982244835336019,0.0028530253814046543
3.0300000000000002,1.184529582293212,0.0396434590266524,9.752013740278212,0.009187683283076885,0.006063963486779367,-0.005208104325776163
3.04,1.0281262425955586,0.014434767039150385,9.882040621884322,-0.020017990259833373,0.004202057411539903,-0.0014621134472790887
3.0500000000000003,1.1777933322998515,-0.04905602921824155,9.737432418371196,-0.0013623956969288482,0.0013262838683063636,0.006798469740991241
3.06,0.9987242056712272,0.21107673680065342,9.743161517217636,0.004524416439482503,-0.0012335274966894588,0.0026887071510761393
3.0700000000000003,1.2363894286647927,-0.09159748206413582,10.049169966337107,0.0035708916244031313,-0.01060820263392728,-0.0016347597605149706
3.08,1.1236359034469598,-0.09462777003520602,9.77668973468909,0.005010313932634651,-0.0017456454580063046,-0.007255104672741716
3.09,1.1450101744093273,0.11754813377646167,9.882386857337826,0.006824886251546393,6.837009760177209e-07,-0.00924490861514648
3.1,1.251735563803114,0.07392967881047402,9.678014676326258,0.002591386190367665,0.0014070115307617632,-0.00331143032392636
3.11,1.2633008679039237,-0.1037824647055411,10.007720245226361,0.005831076762894943,-0.0007386922666156854,0.000736058164604895
3.12,1.1251711616178448,0.04613500526107931,9.735318882927896,0.004337958255700432,0.0016123155707263768,-0.006200684205948428
3.13,1.2278092819466055,0.08202590009907927,9.680728938517916,-0.003675480614222917,-0.003139797276044259,3.0708532661149805e-05
3.14,1.1646352360892893,0.004231798962046207,9.597414109427076,0.0009017940556343691,-0.010942065418045686,0.0005994183272327142
3.15,1.2450598272008466,0.06693969248412798,9.898443038958643,0.0007968924412218337,0.001596893052478732,-0.0104368806459016
3.16,1.3440813537673149,-0.11164330632519191,10.051212987917827,-0.005269140141063059,0.004428422753573497,0.0013059725177151681
3.17,1.2023533617296231,-0.039519499743988905,9.825203909311933,0.0013822287451244785,-0.006051046260796023,-0.002586528176982913
3.18,1.0633747757716812,0.05208418091178769,9.789739655202409,-0.0016413128336694545,-0.0018487061662764467,-0.0039071073263751786
3.19,1.215774240996012,-0.07129281246371104,9.953697932676246,-0.009504221334676424,-0.002074871689070891,-0.0008375888462059388
3.2,1.1261716320788702,0.09184521333106478,9.700814257923136,0.005082035139932112,-0.0006985357999268081,-0.0018004466710324122
3.21,1.1955655863102401,0.020692578305573344,9.959394442641633,0.000626345808001816,-0.0018738904757576427,-0.001259398144699408
3.22,1.1236868870930607,-0.0666882511392523,9.624090013343823,0.000434872883623699,0.005643390236686021,-0.00525952540968161
3.23,1.2478863368174793,0.11588407001157254,9.905240336148083,0.00595145835775111,-0.00029643724570914014,0.0011610144426227665
3.24,1.182023576659041,0.07025047437021947,9.660770046477582,0.00017158687131293757,0.007085866184868156,0.0008711332989294667
3.25,1.2083328671673972,0.10294248415042681,9.926796661529703,-0.0022709787734513666,0.0073691415532445405,0.0038923664042570115
3.2600000000000002,1.1997788691742675,0.040084672264418246,9.807537893905211,0.0009844647335718803,0.006418556569161186,-0.0005285911400497837
3.27,1.2379266943254021,0.06340225729511136,9.834414889990326,-0.0015589491211089592,0.00022811279151319455,-0.0019549223899862685
3.2800000000000002,1.096235634134676,0.006862018717582819,9.981180465475001,0.0013738359373172335,-0.005763201744678696,-0.005096790911118252
3.29,1.2547661390954412,-0.03562445987775912,9.961085855754652,-0.003819780002671489,0.00043373492900019884,0.0015916625065999588
3.3000000000000003,1.0582956924074753,0.03275062183384222,9.811687791893002,-0.005216463433511376,-0.003103865289982426,-0.00024575788652221603
3.31,1.116449997326966,0.07656579885811993,9.837263409975266,0.0013012284748330195,-0.0016796650340437753,-0.005120344662432795
3.3200000000000003,1.2800493963726634,0.036691041226243074,9.763372625891813,-0.008691679389154168,-0.011076484984841022,-0.0017335405926781383
3.33,1.1011753600462484,0.17427631799377913,9.943794262619917,0.004083335984755564,-0.0056047130551425475,-0.005484671347791542
3.34,1.1999769611806224,0.037490755359859025,10.0691824537102,0.0003272167881372721,-0.0022173157674085504,-0.0036890783368993462
3.35,1.0675062528703134,-0.10547580394696902,9.711728973965522,0.000869728153026577,-0.0016357126292971466,-0.007580183029128066
3.36,1.1425790869054184,0.030818938052031297,9.697460610259949,-0.0056506421705864816,0.0009702311774396149,0.005319360141744848
3.37,1.1044947666922478,0.05718518141452132,9.63682585667455,0.0007089583052424682,-0.001652772657407186,-0.0037198578748204505
3.38,1.227670421148526,0.08447720875884962,9.689820073894497,0.0038767979030471023,0.008991330195178154,0.004852164319653197
3.39,1.0745062276594968,-0.034384165776442155,9.968842952236596,-0.004717542718102595,0.00015579117982407201,-0.0018427742805467628
3.4,1.038910552581365,-0.06010843718258891,9.718068614129455,0.00043892110238209016,-0.0032792326536620234,0.005246511052949995
3.41,1.2240371139240256,0.053317507142754995,9.778308004411974,0.0022478684454356897,-0.007093093258555787,0.00010610936311640656
3.42,1.1147950364595396,-0.006709500116016428,9.892361114184995,0.0024886937450226596,-0.0038760311372232755,0.00023731911923056482
3.43,1.1756903791340378,0.023933197207341134,9.848498638670074,0.0009711416664034718,0.0004019752744631021,0.0026608623791770977
3.44,1.0969904402909705,0.05892524556258112,10.009970367609418,0.005250938059350857,0.0006484501347673829,-0.009601892445768168
3.45,1.0589753665985342,0.02566576910044671,9.766080467480776,0.0007505126678818125,0.00041312088592030375,0.0017840443261464697
3.46,1.0683760595441463,0.06382007075812986,9.807264928012007,0.003319554424366326,-0.0033929821566218966,-0.0024871936097892607
3.47,1.0434709710998422,0.004449972975289952,9.763415623300252,0.006285532808477014,-0.0049317170415236885,-0.0017366099553019136
3.48,1.0976645642997862,-0.012586291628429266,9.904263082398025,-0.000883634885362551,-0.0053486749126365005,-0.0005046288115891609
3.49,1.2015962068476933,0.051066592510569685,9.864630242943464,0.003519790184993506,-0.003789332421088613,0.002344068547668586
3.5,1.2578200842457063,0.19486565757843263,9.739837531277072,-0.008050517835995322,-0.0007354896441339885,0.003171241432796589
3.5100000000000002,1.0678977092626765,0.002260046258978902,9.425267319771335,-0.0044907343902691535,-0.0020245476370905654,-0.0007027767788189208
3.52,1.1744008256964071,0.006637909506183157,9.827674386151148,0.009579084456114934,0.004694564072739121,-0.0017392521041962486
3.5300000000000002,1.1168688462804395,-0.05589219778568232,9.742003229176268,-0.010423905230153003,0.0034547888352643085,0.006380001600747332
3.54,1.0693632534594668,0.007214661353338905,9.730689064959167,-0.003291707488828678,-0.003703792021760835,-0.012800618020104784
3.5500000000000003,1.1932495808505568,0.12816311196359967,9.68386405679225,0.0030023650750843427,-0.005229242439154294,0.0037933002004801788
3.56,1.1881348738094617,-0.004864608615292362,9.84104439330496,0.005461509750776048,-0.005856835286754139,-0.004415657237542481
3.5700000000000003,1.2242999997701338,-0.11290565257453769,9.741403482568542,-0.007250754176394309,0.0061365481885223986,-0.004285428716974864
3.58,1.1479314753673275,-0.02162932623165859,9.825059879539882,-0.007491681236352115,-0.017520697527521622,0.00567768767717792
3.59,1.0857588488454584,-0.13209208452568438,9.88771265466471,0.006733558962713742,-0.00463709601042784,-0.0005603931970115936
3.6,1.2201328571303502,0.01738969495308836,9.872189260428975,-0.006664535286758548,-0.00979174713689844,-0.001055450962328742
3.61,1.1240318172377055,-0.044471387563379844,9.957976553583878,0.003898505984027286,-0.0024093205130377073,-0.004553003672056558
3.62,1.2557374581863527,0.09223879017234193,9.66529828232731,0.004433565663183341,-0.002986845787149389,-0.0009072176904720855
3.63,1.167407392850967,0.024040299627108307,9.776583718788045,0.00045055158195856434,-0.003277774340768022,-0.0064507018578000485
3.64,1.2000826940559144,0.03176748025747945,9.634897423860256,0.001346564563124839,0.006038448997409197,3.691385889244142e-05
3.65,1.1974862065789156,0.004778292840049399,9.824765580402202,0.002711445417343095,0.0025041917101795105,0.0007446068403465184
3.66,1.0850317032122754,-0.06756158750787379,9.906480934888085,-0.005507753714143018,0.0012745062406901808,0.004041606121271819
3.67,1.1729058577547156,0.08071959068014599,9.733870573500326,-0.0076507507248507935,-0.005947604373608927,0.004350907512811802
3.68,1.2115239121153765,0.04054215036073577,9.835310962558296,0.005069443105928561,-0.004769681464931008,-0.003440773671777243
3.69,1.130249446143469,-0.1661846082315744,10.10264607027805,0.005641301906077154,0.005680748254488209,0.001030053332338771
3.7,1.3191664583544258,-0.025326219253970998,9.728158868408167,0.00414913122311245,-0.00685872693333188,-0.008994777753385868
3.71,1.1256229057609695,0.015102946181302186,9.806226169262345,-0.0014369304100539315,0.00409026035737495,-0.0006662651878983462
3.72,1.346409830730566,-0.23039361143811177,9.556324207099774,0.00492176039441424,0.0033560003620290075,-0.0013942066119923355
3.73,1.2411864369390135,-0.012448833101053382,9.86329709785119,-0.0022527085610024393,0.000190488587575528,0.00965046456272297
3.74,1.23730823324445,0.02616682379126465,9.712595767017216,-0.002031919554322054,-0.010819875919168777,-0.00024974226716621597
3.75,1.3469256745862759,0.07072546996978582,9.85429293230524,-0.005045004633598603,-0.005862719401869176,-0.00039674529864335966
3.7600000000000002,1.2424078343745175,0.10584549654559527,9.831629230930963,0.004408539555055286,0.003350566487030716,0.004412017216298694
3.77,1.2158087103180726,0.04392573243868154,9.674703846267724,-0.006581407869205746,0.005016715918167787,-0.0046658724322779085
3.7800000000000002,1.1045565266396637,0.06434109810794249,9.945529726520338,-0.000275702006418937,0.006305884695039138,0.0070613162929562545
3.79,1.1405632281475413,-0.22781061728737334,10.014932674359297,-0.0006208226596913091,-0.0003901461066642513,-0.006012216936362677
3.8000000000000003,1.105843355237683,-0.020263307374039915,9.84474272807043,-0.0022150453207173204,-0.00285788010489564,-0.0012730018886823538
3.81,1.1123233568050002,0.0992822948947623,9.946031039253446,0.0014608687553644567,-0.0002854511070786321,-0.006473776266487616
3.8200000000000003,1.278181365032964,-0.033041619025114446,9.783857512764442,-0.0007845872564874267,0.0019211144325747376,0.008491831827630296
3.83,1.1045861663316419,0.013074355780282898,9.745173133855856,0.00019453195397161173,-0.006454460655088685,-0.002354000767858093
3.84,1.19385940492117,-0.005398305931870121,10.020261310590998,0.0006792603294843166,0.0012702236333388117,-0.012903007275601782
3.85,1.2567359048091005,-0.05769636225869617,9.624099671973966,0.0012793938890211958,0.008556530111700673,0.004542182118212444
3.86,1.2103592725585526,-0.10951656709508957,9.824928556549272,0.0008560575405985088,0.00016012023508920524,0.004371181360874131
3.87,1.218146392579554,0.03903683003332037,9.845169342799528,0.008866374234499357,-0.00044356196008569517,-0.0018056213460872445
3.88,1.0450321704581895,-0.06668953734185844,9.714734600168555,0.003210683149822925,-0.0012582146944448234,-0.00019185061064891135
3.89,1.199934765433162,0.05071546674628198,9.843302972930188,-0.003844461335328841,0.002681606526241416,-0.0026517425356679465
3.9,1.211706041495478,-0.12345966633584671,10.114216641224713,-0.0042671433365313,-0.001543620433428217,0.0029384516301366064
3.91,1.2049632187166261,0.08478376172152542,9.77106551710395,0.0003658593246696166,0.00431767174235823,-0.009945668931488218
3.92,1.1230573487368163,-0.03580670016743168,9.732205490464763,-0.00533283379912768,-0.005299733025288938,-0.0026959981794758272
3.93,1.0807898737519015,-0.03183622661058376,9.981797152428841,0.009122939941637272,0.0003654525608950582,-0.004747382365635408
3.94,1.0521452614771487,-0.0011767383253251489,9.900917826113043,0.002212055405845129,-0.0010474311448535935,-0.005510949218310107
3.95,1.0582929876497849,-0.11690337672445969,9.924070473485965,-0.0021070492445760362,0.0019727358183787977,-0.011449360951423135
3.96,1.2157701139436967,0.027947170917823883,9.839815597812281,0.00736094758165913,0.0008156224297717138,0.0006732130373488326
3.97,0.9489098631695829,0.07774163699295379,9.806064088983344,0.008383377854456139,0.0026397417347663395,-0.011627590119885135
3.98,1.153966609342535,0.027966702840545924,9.75216522125607,-0.005861114186880171,-0.004046144825978647,-0.0007270937126479111
3.99,1.0991136140536366,0.05870339651321,9.81231922189236,0.0006443876037289154,-0.0006381399965783174,-0.001392203327436076
4.0,1.2041794539114767,0.032203351386366416,9.754464148026845,0.010686567775280017,-0.004553759909750101,-0.003183837583356442
4.01,1.2494736297043376,0.12298927039193715,9.73759125174139,0.0004916695785992897,0.0005726660645252138,3.741103888328427e-05
4.0200000000000005,1.1585362464723636,-0.15550002359182952,9.72741510429143,0.0010040020346983626,0.0019182261757391477,0.002851435691431588
4.03,1.1171976303759161,-0.11670322039087835,9.948811090792232,-0.003576331890208944,0.0025904337490365715,0.00027099125496426324
4.04,1.0917069470431926,0.03624214172070542,9.711323144494576,0.007365356835733018,-0.0012239632423237286,0.0002817890059766491
4.05,1.0958783421177372,0.08136278454127543,9.66254563679857,0.0012421501437457278,-0.0007353477156591213,-0.0061723853340325645
4.0600000000000005,1.1615344825076923,0.14943058634567113,9.67963460325439,0.0023424874021412655,0.0005318353953820571,-0.00691625406596235
4.07,1.1185275040571425,-0.11006645190800207,9.815479314708558,-0.003872495851840911,0.001640733748130186,0.0014388766134741365
4.08,1.1115961382333466,0.0477763518924744,9.895372135789719,0.004513059284694197,-0.009019533872794866,-0.0014649757439492497
4.09,1.2739916404938934,0.08274093489355173,9.796407173366687,-0.004903327740258213,-0.0031249041179610944,-0.004377872551201712
4.1,1.1196227473457294,0.08836236697713767,9.986014940145722,2.561001347522353e-05,-0.008392267547158135,-0.0041475130513658805
4.11,1.0893297441141536,-0.09110090097538466,9.833932878616745,-0.0013284858095724062,-0.00258625614498557,-0.0029421835377825933
4.12,1.1059376877645761,0.10045119342965009,9.827241413767297,0.005880086956993313,-0.0012051632382827306,0.0024099549044736997
4.13,1.2922991058260467,0.012449891778550182,9.820340645080734,0.004435729228328837,0.003314647789779412,0.0005888012720729319
4.14,1.0985021636159389,-0.016840243478414667,9.953838618670538,-3.794943031762879e-05,-0.0012546406990145667,0.006365196158242682
4.15,1.0841889008245258,0.022935452929584276,9.871291413288727,0.0037718906634329682,-0.007024673774312396,-0.006187009633701782
4.16,0.9692808380142148,-0.021307352484926396,9.628822433599582,0.0017072137420993134,0.0005934607544674756,0.0020250217487699303
4.17,1.193372657379596,-0.02074532283590144,10.00321488394916,0.0004486429233392546,-0.006039406686357055,0.0034175625036473767
4.18,1.2415116490782592,-0.036081446776964274,9.62091607371939,-0.00010022047412133303,0.0022205492931846585,0.0028164847550630535
4.19,1.1465103918908122,0.008563098409544815,10.07431261373282,-0.001478845130500828,0.004251413392679933,0.0033001950708337465
4.2,1.139977555227858,0.056186890607575396,9.795793107208217,-0.00044271185481090455,1.4161305190880806e-05,0.007863700230828649
4.21,1.1168657293418176,-0.023729068931662593,9.740931323736094,0.0047685364727152605,0.003968630540536896,0.001792102373084573
4.22,1.0930301723264995,-0.09547884849090746,9.878959418891627,0.0028774538477904328,-0.0007004251200345181,-0.0010788082968525307
4.23,1.191681424587879,-0.07515278664542577,9.662414090257718,-0.0026124249578780203,-0.0009218391840309449,-0.0023004212120323235
4.24,1.0859445934903889,0.06995337178553494,9.759143693451513,0.006001920520419044,2.822752441983509e-05,-0.0014558723139969502
4.25,1.0462136647757028,-0.10748953138622122,9.807323510609367,-0.005748056381673531,-0.002480531125125311,-0.0006937419192486527
4.26,1.1765510976683857,-0.06405964012497807,9.834950172416196,0.01044234898897884,0.0030795853248200707,-0.0048561787064041444
4.2700000000000005,1.1475690212482832,-0.022211346249415106,9.77507200369888,-0.0016578757192684183,0.0011613836160503886,0.0011470654205178045
4.28,1.0204646460799327,0.021176430929169588,9.63698085246574,-0.010653880597617174,-9.731725817151237e-05,-0.0013765598248922587
4.29,1.1631688669068287,-0.08656443017832809,9.725704533542656,0.004899238392432891,-0.004350164476569114,-0.004769553321556504
4.3,1.2598587385702675,0.08382706098505702,9.778138167204224,0.00440227446148536,-0.0033919019378198336,-0.00936012509059851
4.3100000000000005,1.1856054159958416,0.14688871911357324,9.843280427425169,-0.0037029289294970235,0.004093972079579205,0.004279262594121954
4.32,1.1857588427179049,0.05464606940183392,9.83879052630846,0.0025798459970668313,-0.0009244453445814743,-7.523859452899906e-05
4.33,1.1121669210614211,0.08189679192406192,9.891444492030532,-0.0025247630640466306,0.008082016843566096,-0.0028244899236063705
4.34,1.2765101924599536,-0.02807302599327323,10.031889387314129,0.0028284224564451947,-0.0027947766717984065,0.00431366425722033
4.3500000000000005,1.1930033989109912,-0.09946236123648827,9.720699759873904,0.001192544048157814,-0.000446648699719966,-0.006118370365041535
4.36,1.199806136223575,0.05530414285671019,9.666946204987628,0.0028081797887268807,-0.0034587595469154613,0.001755902437874275
4.37,1.1419874687308056,0.037565763541282333,9.733203979922468,-0.002941843441593828,0.0037527048133243345,0.0042355969049969215
4.38,1.2009382595762252,-0.01501415873950882,9.775474984252225,-0.0014120263981335802,-0.0029770300711954656,0.006343939705275005
4.39,1.1126429456931293,0.014333502989847938,9.811223726240678,0.00032051680723959024,-0.003931576889778732,-0.00021102941167074865
4.4,1.2174972396157129,0.005307559536140718,9.68037169539576,-0.00034416385403556653,-0.0006127515161942861,-0.00029268181762305806
4.41,1.1570503392728826,0.0036834026253131044,9.843129379755883,-0.003925520154340847,-0.0017454459386701882,-0.003689648693512447
4.42,1.0950264341531386,0.03971450900500675,9.60465812929839,0.011330975282265532,-0.002353901074905764,-0.0030781507408174113
4.43,1.2680046976517096,-0.13493227953778564,9.787008224153626,-0.004469133695481784,0.009985186218714718,-0.0013804029552589433
4.44,1.112134796917152,-0.026906764815493756,9.823854834644754,-0.001383713797533077,0.001161928912011623,-0.004931999796722476
4.45,1.0634915458421426,-0.0001896238469264549,9.734118559639345,-0.004131344731554533,-0.0025581201662712846,0.0009570872872024442
4.46,1.3254746114280116,-0.050140009373561334,9.684048625664474,0.0022458791140099886,-0.003152164685907705,0.0008960794071368582
4.47,1.136001794976861,0.10084544225437551,10.07212394486667,-0.0026286433345683274,-0.0022672935865472358,0.004262464777242152
4.48,1.1292968644038768,-0.045163491224091815,9.737636157273338,-0.0006802111425890218,-0.00558370142761243,-0.005946789240996221
4.49,1.1706878746959875,-0.08497482097654313,9.648634880598443,0.004182747406014138,-0.00423959346995593,0.0006771121074887327
4.5,1.164631979457326,0.009361093996013215,10.043178805863386,0.00797881243120337,-0.0002657872399152719,-0.0003211030468150269
4.51,1.0811921857379547,-0.05344851448726992,9.842833006866636,0.0029416295639695935,0.003857100120649752,-6.77045746802607e-05
4.5200000000000005,0.9459331800410309,0.026784172095198823,9.824228702380019,-0.0025213137575766592,0.00227638700075666,-0.010293134965151567
4.53,1.2607748922359776,-0.09086956920513041,10.022740114469796,0.0013938915944702805,0.009273221187885414,0.004347284807632283
4.54,1.1154676891360729,-0.02527716188851752,9.832298215546349,0.0014785166427416924,0.0013323180297151803,0.009960698854334836
4.55,1.2817479769663565,0.0898718107716093,9.699791043994175,-0.0051670045145707465,-0.005102822464357332,0.00010307636797154039
4.5600000000000005,1.2374219100583972,0.02730776867946237,9.703577302765082,-0.0021998655048738013,0.002019517451751446,-0.0033416895627236855
4.57,1.3031041816783802,0.11496025210714579,9.890335376149485,0.003451731034291355,-0.005316436659596578,-0.0050209713089889975
4.58,1.1543135502529016,0.10840872726631089,9.798182108627145,0.004025445086318049,-0.0036542735144846562,-0.008904557310347066
4.59,1.099286518374304,-0.03266048704323665,9.706358418266118,0.0005723196061171526,-0.0006131860186526539,-0.0019201376314483337
4.6000000000000005,1.026129843845229,-0.033669740052862454,9.903710956989976,0.0022967991735365536,0.006324532977094327,-0.003105539162417603
4.61,1.0921867473935523,0.01601799865760608,9.746009014619242,0.0036292920367815558,-0.0043952187331393775,0.009637106134523935
4.62,1.1395271527159212,0.08161573034224488,9.616726289682038,-0.004851886594839673,-0.000347351620838514,-0.004721857787688423
4.63,1.1173664013949474,-0.07600444909804323,9.7642421570912,0.0044422827800816795,0.001977103421172688,0.0015510026350286515
4.64,1.0679958826537206,0.05684631536491522,9.489816595452151,0.0003322332930167236,-0.005377492412742164,-0.0014354029999430482
4.65,1.050788459636852,-0.003977880127549353,9.826313230557723,-0.00508788229109195,0.0027650566521751135,-0.0020310002494132546
4.66,1.0867346162003026,-0.07426761220993149,9.959681459543926,-0.0038573041061297966,-0.0018037134037276986,-0.0078037437629102134
4.67,1.0966529809529437,0.030677211287996626,9.780900814504493,-0.005945992816442483,-0.0024082869267729005,-0.0041185770109743456
4.68,1.2159958352200801,-0.01236102655760273,9.841075707097866,-0.004817403393154729,0.005735989913670674,0.005608319474384086
4.69,1.136424485736997,0.04489327135665736,9.772174495735566,-0.0012128301628652827,-0.0020957738033624902,-0.003218064361937421
4.7,1.0577494849538696,0.03291145313077319,9.96416381868538,-0.003922870102564487,0.003849720775176643,0.0020136184056544246
4.71,1.2020370325671312,-0.10781998781218413,9.939739362940319,-0.0019724076773209465,-0.00827232958089296,-0.005522278507947175
4.72,1.1121736821107453,-0.1270874760474333,9.867608461344172,-0.002368911410485427,0.010621690884127908,-0.004906721673828772
4.73,1.2010901034536925,-0.24846786821718259,9.722831080850312,0.0011993910445562425,-0.011283648747392098,-0.0007505836018801236
4.74,1.082216048199593,0.15472573814628005,9.816465820738028,0.0017345982434213115,0.0019826529591852804,-0.0018829402849701582
4.75,1.1939252480534261,0.0468046061100858,9.772826249431503,0.011849206689864663,-0.003607346593532707,-0.006523286986216713
4.76,1.2331286515441664,0.032060592000129395,9.716556293180169,0.0037169965956446644,-0.003583542267753797,-0.0009012127590898876
4.7700000000000005,1.193540778772983,-0.11069806729261528,9.730197482708432,0.006542831649095309,-0.002161164709030226,-0.008911977940687845
4.78,1.1076505418252696,-0.029784613245695372,9.966631424055976,0.0032010320406382874,-0.0010594178124859613,-0.003656842892117489
4.79,1.0031237400856279,-0.1047689787839932,9.558405347206017,0.0029390037186011455,-0.0022914256496621974,0.00011662663741785003
4.8,1.3248328681395711,0.0034159069014851324,9.894203420076462,-0.0018784627221885158,-0.004488434538716482,-0.0018948506904547283
4.8100000000000005,0.9968244986496548,-0.012126791636183028,9.866179564050647,-0.0021001517890253357,-0.003732975095358859,0.006829746641622664
4.82,1.0744196399052839,-0.04252489687760631,9.729710583708997,-0.00333786165757116,0.008489352572535773,0.003067171364034665
4.83,1.2718831895255192,0.03624820288583877,9.671979883869088,-0.0016305948517443246,-0.0026919926610380514,-0.0016554411058978616
4.84,1.1881382405290026,0.007369171234699213,9.785282208250402,0.0008745161188139437,0.004564195403085166,0.009595678547870164
4.8500000000000005,1.1651748466695262,-0.011663764035154164,9.822310403456822,-0.004768855087966759,-0.0035738570020736465,-0.006695815710535512
4.86,1.036463788905196,0.0024851676577515715,9.873567085161744,-0.005544964174931611,0.0016632960476840757,-0.0009764430816158941
4.87,1.1161896652391978,-0.010716825647060248,9.823986879608354,0.00034967234738661696,0.006524686799796318,0.0039814493117674215
4.88,1.0990605097378556,-0.022582459207881267,9.73881430167014,0.005126514060947813,-0.00014799654844280984,-0.003481104220231118
4.89,1.1494519906615515,0.009585223212535026,9.836134334237006,-0.006320026364889667,-0.0025932737338643153,-2.3273110957859812e-05
4.9,1.0019892697403552,-6.994577143863654e-05,9.770251310275256,-0.004048105983156566,-0.00244834712452333,-0.006855415138458592
4.91,1.1410547437404719,-0.16862430566063435,9.737160551772204,-0.003243425650314182,0.002336273817348976,-0.002567979766822232
4.92,1.1202821143457884,-0.03463390229306099,9.954392939537575,0.005989904620266663,0.0015924515623715729,0.002282312671815562
4.93,1.1542283508313695,-0.07831368623854713,9.93588556051368,0.005333102130812613,-0.0045507376702583,0.0013098511679557532
4.94,1.289482375207442,-0.04668511481381007,9.84640605531981,0.0037824436517661488,-0.003019439176093639,-0.010160812064883196
4.95,1.00460399594603,0.014527901899668887,9.71335481746857,-0.00819666302679663,-0.004514285059543426,-0.0017836274243441352
4.96,1.084806685471402,0.026926058204796648,9.835259693592526,0.004642029479244378,0.005168899087247372,0.0007244627241385602
4.97,1.1341522515232876,-0.1379537052071714,9.825196500164175,0.0007112882229259439,-0.003385506207300035,0.002908141146136073
4.98,1.2676515887064284,-0.0772607694192118,9.946233576791071,-0.00019625203766137148,-0.00687556666305428,0.002360028817911209
4.99,1.092931568430068,0.11066672300376962,9.890882169598585,0.0050384322420885,0.006581416104844061,0.008646075752964064
5.0,1.219916928720164,0.01950162780593106,9.798531752253144,-0.004462619107634115,0.004897991294366801,-0.002912917201711682
5.01,1.0997345502349487,0.03016426536432323,9.898517870081411,-0.008301844941295485,-0.011656041928453627,0.0015235557693182094
5.0200000000000005,1.2213087119405936,-0.02106493859457304,9.962056642843999,0.005449560939027133,-0.0029144520000734453,0.002024950720711636
5.03,1.0309541534295825,0.07793931164279898,9.884750712488955,-0.00543601348923868,0.006917601414072339,-0.0025392084903186197
5.04,0.9145961640587493,0.034280854875841475,9.683786532586844,-0.005033596720059129,0.0028215463708108884,0.0009370205544510842
5.05,1.089561909934276,0.14745251917892396,9.79058499331946,0.00022378906680290398,-0.0008809624009204061,0.0042924937286138885
5.0600000000000005,1.067539006321235,-0.015648183218856065,9.978698888722011,-0.0017093327728283907,0.0022177039464576034,-0.004413911825447789
5.07,1.0487873883509167,0.09601472813288968,9.968583218595638,-0.0004477795960118361,-0.008804132299315284,3.1126664783106045e-05
5.08,1.042229043976383,-0.07509134167288521,9.666417708349286,0.00019578082453704368,-0.002506469868016384,-0.003322229450909217
5.09,1.1135870182693968,0.022828804444864216,9.62468891414799,0.004765719011788539,-0.004831253243631787,-0.001542736843292956
5.1000000000000005,1.081440958556077,-0.009783843068556598,9.777190686458288,0.001641645725313,-0.003021864216478621,-0.0018419372872244093
5.11,1.2080729267091963,0.0010608095280441312,9.6524199678186,0.001673428082645938,-0.004668793177545042,0.0030316525834199956
5.12,1.1686935375038228,-0.13970399568392594,9.941981632590583,0.002780066728005406,0.0038079412539047354,-0.0011786906044598993
5.13,1.1336970177293444,-0.06317952388497598,9.820073593233113,0.003981072885558201,0.00033897230210439173,-0.003099091460953596
5.14,1.151188756059549,0.08823180766047564,10.195076632294679,0.0009595288273234999,-0.004414065607842873,0.0025459599644764817
5.15,1.0111362084238775,-0.032626065261818916,9.532650416517303,0.0017664777423901587,-0.0023490422558856876,0.0005319760380421341
5.16,1.0953845760614198,-0.009815545723623444,9.864257350359178,-0.0010131012921827424,0.004138372178050011,0.0010074924146405905
5.17,1.0954668710548148,-0.11125193446935779,9.714109339834803,0.0037689889308795857,-0.0007706025942491149,0.01257905950498209
5.18,1.0712951836766824,-0.02603263805183729,9.865062363268493,0.007010791279526779,-0.004983837951540811,0.0038692637315425682
5.19,1.0823119203214642,0.14064006415059577,9.866682340283898,-0.0014913440282706939,9.392934020117764e-05,-0.0016261043514156639
5.2,1.1994379838629936,0.06660237751709266,9.72140022479711,0.0018326094481918693,-0.0071089456508225245,-0.0028293450132499064
5.21,1.1095678433097753,-0.004633591894985852,9.883713309945573,-0.002993267761880049,-0.001952725493411225,-0.009178975180492419
5.22,1.1378532251206508,0.08465229126006396,9.598599339824677,-0.003041769900194807,-0.0007042820864259987,-0.0032483189800325135
5.23,1.0672411331233362,-0.04608109777272624,9.876151080195807,-0.0022411446175800453,0.0007679738663213728,0.006011049530580023
5.24,1.247236271342678,-0.0994219726011767,9.806216916411485,0.0035390152490244486,0.002862014407159382,0.010145410411035068
5.25,1.2107333899297492,-0.03527870361256494,9.81120888069241,-1.3877534017795785e-05,0.004498551547683267,0.0007024061777689557
5.26,1.1260932034011277,0.1286013848914751,9.837212297560272,-0.006865597705315433,0.001197481024172261,0.0011426746114122535
5.2700000000000005,1.1886325324571607,-0.029312288150647473,9.703926273749223,-0.005777544759489781,-0.006252929048700526,0.0008186717144167959
5.28,1.0658319559422509,-0.01730666661874136,9.857542072822099,-0.004638231638572806,0.005642254883584277,0.0006031208903065832
5.29,1.0996221203984322,0.09775638427637864,10.011807183507681,-0.0028830905125633503,0.004246838270592655,-0.005956985451832616
5.3,1.043212644919137,0.0022589473628920847,9.641692384222322,0.004063976865905861,0.007520077742826365,0.0003150205828112688
5.3100000000000005,1.1975500180135206,-0.02922311004164858,9.851794479028781,-0.003354940986427405,0.005069879561371801,0.005723947325915927
5.32,1.1925171206003036,-0.14251928006698533,9.732125589519672,-0.0015721027083465723,-0.002041620657125641,0.0005777175721106894
5.33,1.2393264533195962,0.01940352244706156,9.611151227212195,-0.00550126300075481,0.00910124037309229,0.002088440154810829
5.34,1.1092219741197702,0.09594161552195096,9.664534408715484,-0.007130035362191327,-0.011206068371092233,-0.014437079131286815
5.3500000000000005,1.1247152663501245,-0.009168851202039337,9.794283692216725,0.004925439748047279,-0.00352500207602557,-0.009563430497581224
5.36,1.0975796068984371,0.06032961831137224,9.813353899689377,-0.004003371091443841,0.003560416006481548,0.006106021744826713
5.37,1.046291822128562,0.002394419883918156,9.825025097622174,0.0008197542667639341,-0.00925708278808451,0.004690763296278604
5.38,1.0733508955761077,0.08982197284547279,9.713584631797417,-0.003690073397792786,0.011917716399729359,-0.005415391697624941
5.39,1.0410377940854625,-0.09570189005891923,9.855830200301323,0.0009766930935451463,-0.003322304773152242,0.00473235397141479
5.4,0.93074277108426,0.042460189805385455,9.855594642205734,-0.0014761326903421016,-0.0006212078722201631,0.0015990213902210759
5.41,1.2012124968133921,-0.04294658783952082,10.036087813741203,-0.01147976886464144,0.004046923621134675,0.004228777785906438
5.42,1.0399966902059672,-0.008734124971514873,9.662573673069627,-0.0021352855657843554,0.00451231243637603,-0.0016506987546332536
5.43,1.0575167754896895,-0.04472898415467895,9.978850725816777,-0.007032328651388131,-0.010381292045043438,0.005069843591368227
5.44,1.0879282558573782,0.096525956778338,9.643783063789881,-0.009174349337864348,-0.002223806410408305,-0.00017837185947404034
5.45,1.0729848718868973,-0.03556599651904962,9.851218598567053,-0.0039919539351160925,-0.00331375897375745,-0.010130800815178496
5.46,1.0586369658618526,-0.045243615206003104,10.061799528282641,-0.0018169111948197786,0.0038207422664617414,-0.0063509809457263445
5.47,1.1217187674411804,0.1517913722822839,9.66847100631814,0.00016188598320838226,0.002041209894214499,0.001506947836882039
5.48,1.0321047306078421,-0.08297229827598449,9.907460430227422,-0.0010199817523505721,-0.0049938242693243675,-0.014864996337643684
5.49,1.2654463452979867,-0.004577979523939137,9.556200244532473,0.008359377988839347,-0.008616754550210153,-0.004606858546903304
5.5,1.0374033544536876,0.01755361080011381,9.722848540117349,-0.0014421132348783011,-0.004107556458078727,0.006187676689133343
5.51,1.0431034643652182,0.09717342304224028,9.605349051316237,0.0032881096936187744,-0.0023721259695030582,-0.0057715730102225506
5.5200000000000005,1.1861452105035108,-0.006416714303950671,9.865140852563167,-0.0027397306014537125,0.001305132581788367,0.004770244580826638
5.53,1.1739606505816365,-0.08717903786867401,9.94642997964339,-0.00991347983472812,0.001498548843435091,-0.0077563055892339965
5.54,1.1256900216689034,0.03425629169261358,9.75885966843457,0.0064434783300020716,0.005976169058702844,-0.0010028497309147258
5.55,1.1041664676887506,-0.06996754975762728,9.914975536810198,-7.310975813586181e-05,0.004805067476443891,-0.0003729371662890247
5.5600000000000005,1.119376713860322,-0.11781782324942663,9.856790729700068,-0.0033217081613222494,-0.002351584467017617,0.0010617533321000932
5.57,1.1167909123019368,-0.08453445105727102,9.771243079563671,-0.005007388671742424,0.0008662241794139353,0.005059257521435241
5.58,1.0344462277525506,0.0848388171105427,9.640675139105408,0.0033626591762630706,0.013484687197141739,-0.0022658177787356908
5.59,1.0746076065222507,0.06731770402213381,9.860278489985928,0.004854985516048865,-0.005904664471776,0.0019664287443214366
5.6000000000000005,1.2330570714935034,0.13697937461625925,9.812033784472083,0.005767118779250212,0.0001517340042016434,-0.004424913181473017
5.61,1.1243108828549946,-0.13626302314498903,9.742024779881076,-0.006544996107140804,-0.0018033503373922025,0.006024595384093884
5.62,1.0359566204548287,-0.04959957025235422,10.004978786814629,-0.008610171247712298,-0.0011813222912627646,0.000415822482707913
5.63,1.1313807784260013,0.04651429495751734,9.849954034036413,-0.007568715072248781,0.0051073424329287544,0.002199975296457106
5.64,0.9798099885241174,0.01095791396352047,9.964262373932938,0.004198167128878478,0.007330169461044742,0.0029584760898245027
5.65,0.988433689623983,-0.06599600539525376,9.942581264784213,0.006665969560610614,-0.004708748138122489,0.0010606439483511314
5.66,1.1058584313099522,-0.08007036532265711,9.929739470431162,0.0009539232710877075,-0.009987351820109305,0.007706047821974102
5.67,1.1758947500522754,0.045878356340475136,9.747913580037194,0.0021739191336472476,-0.0025783929643780727,0.003667110546330547
5.68,1.0751433854715224,-0.04183066617198111,9.825117674009656,0.003614549074202316,0.004385054688281987,-0.0001489581532570262
5.69,0.9954481559877855,0.07100690653649597,9.731721275448338,-0.0005790959208745597,0.010749459138501427,0.0030241500728302316
5.7,1.094769281406156,-0.05959224114491679,9.899786974316134,-0.0018057060898888822,0.00013696650437674813,0.0009182866452688896
5.71,1.1605566085850418,-0.01798861067526369,9.834561220997275,-0.008999900182803434,-0.0071392050861325855,0.0004756251869559832
5.72,1.1298206956699877,-0.004459354622111734,9.649794370956176,0.012472424159036072,-0.00023756102142261378,-0.0022707623251168154
5.73,1.1184339429130223,-0.040892191798449884,9.708312506060201,-0.0038018020639192652,0.010253361050965235,0.0045942489562226805
5.74,1.0430909400472894,-0.03417641133889626,9.945746758062443,-0.002819099339251696,-0.006823794834426824,0.005318249494878686
5.75,0.9325664879167405,-0.07020297756117355,9.804970080070389,0.005968395675433759,0.0005148987221896965,-0.0031664512659683873
5.76,1.195882783462603,-0.07939709419901245,9.796413084224532,0.004057258834456112,0.0021032755301498124,-0.008143547304512487
5.7700000000000005,1.1419985622298183,-0.001410647546183065,10.026776046356966,0.0003218713985262116,0.004533499877765162,-0.000583627505451484
5.78,1.1119586611842358,0.013640638278479604,9.779862499152346,-0.002634916712026627,-0.00891279404418682,-0.003472634005077559
5.79,1.0669581828820935,-0.07643274461366784,9.917576549370475,-0.0017324080561868624,-0.0021110727545037658,0.007815083216706821
5.8,0.9290506647246022,-0.00613253783348818,9.85977452205011,-0.002665845141494461,-0.009681434962135084,0.0010289050839676242
5.8100000000000005,1.2749447416760715,0.05867744692199946,10.044470696455837,-0.005569324121061723,2.067521078431246e-05,-0.0026948742300899244
5.82,1.146668246412443,-0.08481840894309527,9.94743122533233,-0.004508466431495632,-0.013121379088966028,-0.0028625849248805637
5.83,1.1877396272558196,0.004190966494863968,9.940569023721045,0.007169562555961032,-0.0013022405116730176,-0.0006186377357149982
5.84,1.0820729561391007,0.0465686370212284,9.672744138582365,0.007560278227848829,0.007091707253973986,-0.0028880294357793257
5.8500000000000005,1.0406114366666372,0.015595344077911404,9.83266951445665,-0.0003490874148330342,0.0030398018687497197,-0.0036206909842141466
5.86,1.063901548782144,-0.04343600175542652,9.696664719243064,-0.0014500314767293425,0.0006389655582169972,-0.002825744445928596
5.87,1.006284052644598,-0.05975775012120223,9.87788284937483,0.005078281738883733,0.002493631867221223,0.0032085616280544665
5.88,0.9341124674644322,-0.06595367439478425,9.875281080442088,0.005103448379202668,0.004502357638530609,0.0020375909726955345
5.89,0.9521599113760493,0.22460232406914155,9.907765046764274,-0.0032345110464630615,0.006232413625927191,-0.005124854092194832
5.9,1.018990955353184,-0.010880458633389153,9.974736778812524,-0.004340551473411964,0.0012423526412889076,0.003631431489296409
5.91,1.1216106938221917,-0.009707353131818489,9.876568996105972,0.0038120793057565077,0.007947469401754552,-0.00018278756928963858
5.92,1.0755743195454466,-0.08685372164077387,9.682801891379762,0.0028049441941333515,0.0057150061371627325,-0.004564846364121678
5.93,1.13665421603894,0.13311678545556668,9.836771820679404,-0.0001683100346053707,-0.002639850679784573,0.00524134401060975
5.94,1.0453421659052935,-0.05343103230460887,9.773190934013146,0.006326119944739915,-0.0012124960622341995,0.0034093543693352745
5.95,0.9709631254346713,-0.06290268518523164,9.856914298859667,0.0006193925007572865,0.00036482523757472095,-0.0012997302636042897
5.96,1.0250227656653184,0.03488387450575156,9.759518483958042,0.005360521051101254,0.005864058869862631,0.004133293712593185
5.97,1.078268599123526,-0.11739491082338725,9.810857465448107,9.527596801204275e-05,0.0033683462374859787,0.005907245315377476
5.98,1.0804199551007876,-0.0637511839310679,9.903996957603972,0.005524367249409996,0.0016894348002024194,-0.00537712354064086
5.99,1.051084514454244,0.05229742869380529,9.777960365107575,-0.0014447443754238617,0.007904007348531299,-0.005821468266895663
6.0,1.0042991027207924,0.03218584741143119,9.888177918511984,0.006938203245937279,-0.0006215122440598626,-0.0017123578937129121
6.01,1.0771571802290176,-0.024691426117586648,9.916150179210934,-0.01195097778306498,0.0016028701827757214,0.003633244840704813
6.0200000000000005,1.115850911025208,-0.04484907044269455,9.825240033927903,-0.00404394082109373,-0.006899502811300915,0.003816541493795221
6.03,0.8562617728601227,-0.03205522228629113,9.713231946914714,0.004084031620772174,0.004893688278405334,-0.00036856211229859014
6.04,0.9985252735230492,-0.04988260159019656,9.901739742673733,0.004226180164345623,0.0015765972504206644,0.00011879761664705062
6.05,0.9825500523619904,-0.21391865527348844,9.810246348523437,0.008133089634035726,-0.003831541714224168,-0.0013558421201581166
6.0600000000000005,1.102226492010225,0.04868880255054037,9.751399074942201,0.000970501771243122,-0.0037295039592168695,0.0035723251763392122
6.07,1.0803802287879867,-0.01628188868513348,9.893684159106096,0.004734856105707904,0.0019396191280275006,6.873196586586984e-05
6.08,1.10562637703347,0.09483653175082499,9.952537871077263,0.005105210203595043,0.0032541310938583473,0.005133156134498481
6.09,0.9907306124941976,0.03769288305540578,9.890599067704672,-0.0014730118814336452,0.007472503886101536,0.007459251074138289
6.1000000000000005,1.0504380379977616,0.059242711219379886,9.73991672632569,0.00041940425739943847,-0.004453338586166028,-0.004179740634034965
6.11,1.0475035064395042,-0.03536256320483966,9.934640320514873,0.0006690756127738331,-0.004224765294964451,-0.004700736040446695
6.12,0.9681604350005351,0.09817966786564057,9.809706411629996,-0.0037036579954411535,0.010676060131563627,0.0004187163855259031
6.13,1.0082878202830916,-0.1245021411147894,9.819457453898748,0.000623858840889703,0.003131199515883827,-0.006431342376815149
6.140000000000001,1.0015133237747527,0.08583794103933386,9.921827691748085,-0.00379403409451098,0.00017376534893326066,0.002245736196582848
6.15,0.9616401762344398,0.09611083266792879,9.878352105403248,-0.004918076932063297,0.0030907269026259803,-0.0005113894191097249
6.16,0.9249359734491563,-0.12546911906974256,9.884468143408949,0.0033172499004984774,0.00467613673541344,0.003550249254981477
6.17,1.0790231380875852,0.004235818952460205,9.823537832380072,0.008066978969895732,0.0007044578729869997,0.0006576171514749544
6.18,1.1147725303725515,-0.055603700890859094,9.953249091856723,-0.004266461761013299,0.005253908425006415,-0.004096581016335223
6.19,1.1005709688312375,-0.08259176790683802,9.754908407646315,-0.0013544294980144124,0.0028061080980719692,0.00019705783406486028
6.2,1.0106540402187691,0.06816897243480768,9.704674740030487,0.0012019029631782968,0.0023391620197479282,0.0008709419168616446
6.21,1.242603875957349,-0.004361977543726925,9.969988235888822,9.3785106651351e-05,0.002561744295618554,0.006338490995761582
6.22,0.9958984088245679,-0.031189567830942497,9.797839214204172,-0.0008663204241310278,-0.004702534094432669,0.003310808045626152
6.23,1.0599389828762449,0.01329179067865093,9.86524813061735,0.0044244262522174236,0.0005919968598884961,0.0006839385015175372
6.24,1.105939289973045,-0.0810562221451416,9.832987004986988,-0.006301560830853718,0.006507621644692872,-0.0036098844266249605
6.25,1.0509111024518205,0.008006075176999252,9.777845928422773,-0.0005639012095308031,-0.006400937541956156,0.0035460226374005345
6.26,1.1753557463853805,-0.022301410269937687,9.662731514763081,0.00014008661844312715,0.0010413131684943024,-0.0043849804031041014
6.2700000000000005,1.1747639588061833,0.11528198709161465,9.860777932068585,-0.0043400613137134295,0.011673510373845411,0.0006423687151612746
6.28,1.1007876864015957,0.04235638235559601,9.729455433733307,0.00896866773193021,-0.002136296766628265,-0.003998393966719667
6.29,1.0235569452931539,-0.05043586555105572,9.629750922854523,0.00017369222014906185,-0.001350842022945327,-0.0009284455918201272
6.3,1.0033178205272066,-0.11907602308839849,9.823812118636136,-0.006255508796876873,0.010347422797379767,-0.0007177047174923182
6.3100000000000005,0.9993368318819362,-0.008610070302568395,9.86712322986652,0.012027411188870268,-0.0031333084534870903,0.0033088469358148916
6.32,1.198681699504832,-0.033956807057690795,9.712384603591907,0.0020179775196399567,-0.001157622018780592,0.004478688256807422
6.33,1.0310642732723736,0.030571803103482155,9.647756002526595,-0.0038238772899596273,0.00036955417793949676,-0.010073060219513012
6.34,1.1629854194824176,-0.023217398518044306,9.770605730003215,0.005490998035955188,-0.002433551691157244,0.0008208631590489883
6.3500000000000005,1.0962317361412703,-0.06358783878901758,9.744031206780738,0.00020283493420659632,-0.0047142492979616235,0.004302378258666329
6.36,0.9630212153261748,0.03708330849163054,9.742840859476601,0.005941016630202047,0.009040450345472665,0.00022347547218853705
6.37,1.1157933213651852,-0.031550911191537974,9.945374760056554,0.008159529745502044,0.0055085946480451595,-0.0013200626103284986
6.38,1.0407679313180178,0.07870113747076052,9.709353387320553,-0.012436816998163474,0.005184085989809572,-0.0019569204422334513
6.390000000000001,1.0214239715786582,-0.0023180902382277414,9.799918667299012,0.002430576055072606,-0.0029513336325301632,-0.0037626050890057954
6.4,1.0206207015544475,0.053445809824568785,9.989312106927157,0.007030825996777104,-0.01181471910207992,-0.005285354292930317
6.41,1.024392687529137,0.030691087803820755,9.57591639261011,-0.010866755940579205,0.00037416079245217615,-0.005284565472101872
6.42,0.9710411675338632,0.02363135551950332,10.001182529507416,-0.006061947414309289,-0.0028991041717912214,0.0010228446688967238
6.43,0.9708028854286539,-0.12204007510787963,9.877889853065957,0.0032596707121201537,0.0038627602244900774,0.007562441502858885
6.44,1.0626333811439714,-0.08900174295687625,9.744032147181283,-0.0034947095992899535,0.0022403650802931994,-0.0031309129536441823
6.45,1.06598010447777,0.001683173093166852,9.923123416358337,-0.002151142306816187,0.00030266430479730893,-0.001200251329532561
6.46,1.0250133050699062,0.02988523454146173,9.898727648944808,0.0047470171202807915,0.00012210383520626215,0.0036229356378972405
6.47,0.7550374001093211,-0.03736697705788898,9.897471569727243,-0.00925422879519928,-0.000441500804414681,0.010573486742341218
6.48,0.9916975089573172,-0.061399443402423114,9.840813143753936,-0.004039106132952551,0.005745090872910624,0.004678619829511806
6.49,1.0589160152245283,-0.017134469399793177,9.850071106814566,0.004029068200914921,0.0031368473467979193,-0.013555699055581252
6.5,1.1431239901473764,0.12370321666983808,9.867810553231298,0.001167074057761524,-0.007160215866638929,-0.0032115104256965773
6.51,1.1663436823227484,-0.001392150502067344,9.781360356176604,-0.004654336649741352,-0.0014860196788943542,0.0006517722058416331
6.5200000000000005,1.0958146216399567,-0.07407386590426024,9.891408384105878,0.009266170188243654,0.0028161522505426788,-0.0016501469699720926
6.53,1.027476051339228,-0.026912076216051774,9.994720002336924,-0.002892607184179417,0.007488743407265206,0.0022510464781355438
6.54,1.1574163452194257,0.13252881403711708,9.955711628659255,0.01267281789766005,-0.0032186761396987076,0.00500646299888088
6.55,1.1443532326078802,-0.04071342814502219,9.440014549517167,-0.0027901681888726276,-0.0010448764893993075,0.0034209273539925196
6.5600000000000005,0.9099414609842023,0.06643910071139,9.899412352460246,0.0012096269589507774,-0.003338420557362379,0.000926581507164148
6.57,1.01403404051679,-0.01581642070301771,9.75571094107526,-0.002813920400361124,0.00987334851574739,0.0009107863230198619
6.58,1.0951248990756832,0.060173312417167536,9.839176541070909,0.004396084248774611,0.0019061960135639113,-0.0014789007034964282
6.59,0.9564415898985196,-0.006077478858205608,9.77668874338363,0.0027167845500873345,-0.0013306055759513473,-0.0038234521945001744
6.6000000000000005,1.04087896989574,-0.1249910212460526,9.704161561594514,-6.309938747825658e-05,-0.00026141233510214415,0.003947795578265164
6.61,0.9225285466917431,0.10910046109628367,9.902645829354842,-0.007777605107933944,-0.01014848332896649,0.004042136976807817
6.62,0.9720821951563389,0.0027025018762239917,9.778005187311821,-0.0032632535667961315,-0.010528402676095519,-0.010058975229004608
6.63,0.9915655523082361,0.019767178816432484,9.688429204480485,0.0036382937798015392,-0.001074061219812199,0.005085669863865109
6.640000000000001,0.8953160625213105,0.053895772758191844,9.921411094536131,-0.0010750554488997018,-0.005472430321841628,0.003718498625376104
6.65,1.06317243776707,0.08303157040024978,9.843863311923776,0.0019121496605524577,-0.004772861856238071,-0.004807194334103895
6.66,1.04221990846304,0.13783929047142165,9.705898357469598,0.0027143708642868862,-0.0021092332707187316,-0.002226824776303417
6.67,0.9053203172815474,0.02909290701756773,9.942104232056046,0.0026373234445150042,-0.0023274793890436865,-0.0003789325680428371
6.68,1.1049175265209776,0.007891006745573562,9.749689264618645,-0.004730411109616941,-0.0032683863914145885,0.009432801530635391
6.69,1.024025660610009,0.09794186784441827,9.7266208085374,-0.0012339068791844664,0.0022650020920085044,0.0026455775142948763
6.7,0.9084640129746115,0.1376543659643039,9.850356310554957,0.005010293978298063,0.0010833407221556895,0.0007007238355123234
6.71,0.9910925056543336,-0.06680018282800881,9.67366735211781,0.004630840166902362,-0.008052021078830832,0.0111249891979958
6.72,1.1132650518720257,-0.047345339201887625,9.745778823350284,-0.0017594700801481125,0.005559483574428988,-0.0058806058466936316
6.73,1.0623249240350803,-0.07224922225921636,9.566583514584778,0.0030613069112834556,0.0049591403467819034,0.0017497091660011244
6.74,0.9862149566656153,0.016408858262428265,9.827293083295983,-0.00703599396860563,0.0018979943532907836,0.007882326198957191
6.75,0.98561022997409,-0.032589250477910295,9.518306340471543,0.005976926280603023,-0.001235265549722127,-0.002062882554215012
6.76,1.0217832110666236,0.03486906667676458,9.969635861271591,-0.0018808487771623354,0.0012626527028353613,-0.01085364990711452
6.7700000000000005,1.0966642551757064,-0.0005939009956127918,9.841037414158684,-0.006046821992789219,0.01057978856841958,-0.001466449462495444
6.78,1.0497393312503434,-0.019970209343299874,9.78899807756057,-0.0073318981190225,0.005491784877177941,0.012073587561553259
6.79,1.0498528753270122,-0.06302006216380876,9.791245847385259,0.006489938469676643,0.0022021780278890604,-0.009622393680724652
6.8,0.9860514733737262,-0.005841006350476823,9.654440461410056,0.003577884863266164,-0.002156510590855399,-0.0018102928611686145
6.8100000000000005,1.1424019209807315,-0.13827726418029834,9.970705611509509,-0.007791803087550279,-0.0055846804475278835,0.00399439202779956
6.82,1.12037525625862,-0.22052580489843043,9.940441148522746,0.002614301832071596,0.0026797644385864383,-0.004013186903314367
6.83,1.0017420286499892,0.10884324274087254,9.677990689490214,-0.000634953743648735,-0.00025715338532110687,-0.004762867316713346
6.84,1.0668168169380885,-0.03761408400573716,9.772131454009305,0.006021673591454947,-0.0004960766226769977,-0.0005518886667273102
6.8500000000000005,1.1416084242014017,0.0755672770623541,9.954598884132249,-0.004023873522575598,0.005502490515871036,-0.005133750363274803
6.86,1.0714939900872944,0.11594271377745935,9.776178891440766,-0.001506990640008423,0.0007019444206208437,-0.007778872447545494
6.87,1.001140081567591,0.008301057451965235,9.765397467119765,-0.002854659458234543,0.0033437376273273574,0.009274344838390855
6.88,1.0942296773783904,0.07712764963887381,9.72667270963711,0.012047334519666678,-0.005111409022578767,0.0012732280658697942
6.890000000000001,1.0603150988950225,0.11000280531112652,9.866904930156407,0.004679063170020765,0.000142047982453574,0.0035911888928246917
6.9,1.0832642270035107,-0.15855743255608928,9.942837500178587,-0.009782025971504852,-0.0027009992844871846,-0.00798549011237263
6.91,1.0130591228619987,0.09242544852409243,9.703498913558363,-0.004028883965992232,-0.011142137442800761,-0.008238935659125025
6.92,1.0161571938567655,0.11296877946819267,9.84758628319018,-0.00079744066551206,0.00030843565234123043,0.00777790761620331
6.93,1.1330049316749695,0.1015052634272568,9.940641506917208,0.002912759264256687,-0.008286965835214929,-0.003907199623455674
6.94,1.0436581614564386,0.14459283432332942,9.888795102822213,0.007227057291927048,-0.001206297676513125,-0.006764677036450299
6.95,0.9236419111175895,0.0066830871837696105,9.914177747985677,-1.2129934507679487e-05,0.0022014923190577206,0.00784737516933397
6.96,0.8894096342911926,-0.02794502169314289,9.9620874038452,0.003290131806374635,0.003963423886206496,-0.01296412113524081
6.97,0.871204700960382,0.021358671266479338,9.864386915273666,-0.010881839761094228,-0.002995149300112635,0.0037501039530874443
6.98,0.9356691087292365,-0.0812420181409385,9.805642479354514,0.0021544813584711414,0.0048210352797246996,0.0021058548583081245
6.99,1.0753222852468785,-0.028270800346677057,9.640551988928832,0.0031376233233554925,0.004592116922645723,0.003970381740431
7.0,0.9659778673973666,0.04380029607116701,9.706691363093437,-0.0011285143856964827,-0.003701474206082668,-0.007449795725548903
7.01,1.0356761450989531,-0.03318512636217922,9.674942865312666,0.0015732706014080062,0.0037137146691911035,0.0017789713512686037
7.0200000000000005,1.1316712331596435,0.0092076762552173,9.839441851299284,0.003338123577273976,0.002598600818107584,0.005147694509517566
7.03,0.7976337267146867,-0.05768082685260897,9.71457374043474,-0.0023744325709973307,0.0007916333664863413,-0.0020788571651328587
7.04,0.9362222732932041,0.019447237703998456,9.669284540736223,0.003773852956380959,-0.0033585182048080776,-0.005746704012851592
7.05,0.9736461143962957,0.04326957331248669,9.682623707460676,-0.001991227796233065,0.0034279528887238416,-0.009114971292038703
7.0600000000000005,0.9699155806426768,0.004204749500401801,9.783765042464386,-0.003634880582478221,-0.00035550742448351547,-0.0007923848234890349
7.07,0.981042785378543,0.012887956359817668,9.872191127081932,-0.0053076427147932875,-0.004470318443354423,-0.0009654405206383405
7.08,0.9103159643324888,-0.09947291717438939,9.775529058471754,0.004859739452493886,0.004900221456418824,-0.002649115677127706
7.09,0.9503555467720016,-0.05218015333627899,9.614914716920572,0.0004843601082246058,-0.008027198036544832,0.001949034995010338
7.1000000000000005,1.016705934393549,0.12803522274524484,9.616764354415917,-0.001416810663086955,-0.0004293899641057801,0.009528274568099473
7.11,0.9950301875008378,0.049290874663259016,9.709637660676842,0.0007187455919393808,0.0009197215735671821,-0.005138060785956662
7.12,0.9423395995947788,0.010228761186667856,9.896619092936678,0.0002977878740262794,-0.009644664621397571,0.0007779996511437624
7.13,1.0028528520589992,0.10645771675011742,9.759713050656371,0.003508887534396226,0.0005503024023833217,0.0043763712855518465
7.140000000000001,1.0599203722712405,-0.0015218286752530954,9.637254948645605,-0.00722875512828766,-0.0011461855126176027,0.004820959797808769
7.15,0.9980867939494568,-0.08610423283700808,9.992541459508818,-0.003507418044327092,0.0038363969647336534,0.005667582039584295
7.16,0.9913426978521376,-0.01632421781450699,9.700154825878263,-0.005014573619166869,-0.001350308177109855,-0.006147522216630284
7.17,0.9899835104070258,0.04538491347396219,9.876027427604493,-0.002333094900644835,-0.002085714461905857,-0.0014501588889861959
7.18,1.0276954130085307,-0.08879869759996606,9.836777521746649,0.0020050820496942093,-0.00033024483506266495,0.0014754654323204397
7.19,1.137530644748339,0.060740483357515584,9.90967520659272,0.0019187995840268758,-0.0011130518972235983,0.0025637618973815986
7.2,1.042355114957818,-0.10823404732447385,10.036465462724863,-0.0033239947561356682,0.0048013624979438875,-0.0028981328708255734
7.21,0.883778326587585,0.10330217306321304,9.760072727323172,-0.0028872253214859466,-0.001270997671876707,-0.004192899211588396
7.22,0.9722886069195177,-0.01446690187614528,9.974255979498913,0.00045879012832670055,-0.0018470960103017192,0.0041340699721105975
7.23,0.9639196038121635,-0.07677217207221373,9.672839798039398,-0.008089054407488243,-0.00507719533274143,-0.003091379752784193
7.24,0.9710440804974532,-0.01001650456956079,9.805547217848066,-0.0024927098062044514,0.00019765175454029637,0.009842943000218114
7.25,1.0077085305691986,-0.07477418386749958,9.716835948610976,-0.0020579416328810806,-0.004370045269853897,0.006008858383771876
7.26,0.8922879796017426,-0.006024377191273398,9.73085916533745,-0.005259206162422645,0.006725279724316301,0.0024678818969150786
7.2700000000000005,0.9411672091306751,-0.04877761064337943,9.670177614866276,0.0004581379825763284,0.013217094351773538,-0.0037069217754389255
7.28,0.8678264427405817,-0.02073662101768539,9.754150576506733,-0.00577311140871096,-0.014107778500109565,-0.0013133627882928054
7.29,0.8973081021064886,-0.1882489162991244,9.880772125716954,-0.0031346359626743224,-0.0024405939779958666,0.005300556949770575
7.3,0.8871541627514132,-0.018261734544569502,9.785668281739124,0.0018068237324705594,-0.003705658860025293,0.005882325695847521
7.3100000000000005,0.9639436843595777,0.034356775151428307,9.702412800534566,0.001957918942694157,0.004896159218971309,-0.004289475347092137
7.32,0.9578257532116567,0.011475749040195351,10.006263689349437,-0.00042233303187202585,-0.001905453472806519,0.001946835266635784
7.33,1.014281087190634,0.00935652097267184,9.859848859575798,0.009454010890606143,-0.005775681126993369,0.005218736869434689
7.34,0.9377705198352834,-0.1488103712957346,9.92327538891892,0.0020346793563805732,-0.0014533643014236239,0.002812350131322172
7.3500000000000005,0.9329799070348905,-0.00548399483306711,9.810151762027632,-0.006083535958530475,0.002598639067732768,-0.005149705967404073
7.36,1.0469731723007096,0.16550051124895654,9.82665922751135,4.87778017688273e-05,-0.011548815512679809,-0.0006876830292853774
7.37,0.869478131028931,0.03136686163975332,9.840354178354177,0.0006077176079453675,0.0014564426294022797,-0.005396809849451675
7.38,0.9121730762433767,0.09322236994286773,10.014162928641428,-8.008548428855485e-05,-0.0012914449291629327,0.002202261203694767
7.390000000000001,1.0861175913887673,0.06366866724687266,9.76110339517052,0.002918112098525668,0.0025472986761994783,0.0007032589695312284
7.4,0.9536343418057598,-0.02189714370847879,9.98805608491892,-0.0028529494412562256,0.00719101404499087,-0.0037695858839676038
7.41,0.8789657131169452,0.04154634259479744,9.79158355154613,0.00624497862077375,-0.012115436024532642,-0.00558460441250808
7.42,0.855646999588979,-0.15368214969566538,9.72656873853983,-0.0019400574986204293,0.005587873591602593,-0.004303879732479289
7.43,1.040088259232407,-0.0004811651952351135,9.595087156151264,0.0038770611000722823,0.00012567075806876573,0.0015550108382959829
7.44,0.9054686477655538,-0.10418100547656373,9.835601250064423,-0.0021727507304860273,-0.0009039384304266628,-0.0024926166570095366
7.45,0.8767138265297153,0.010826294910320465,9.82681948823705,0.005891815703351303,0.00247468925839162,-0.004738788825288946
7.46,0.9401179522349684,-0.0720427340085051,9.771353347058847,0.007645089885821815,0.0008884685875271454,3.434672499507654e-05
7.47,0.9944339493703356,0.03212529170099997,9.934470658289307,-0.004032922153444427,0.001294711265278338,-0.0028487806095970286
7.48,0.9973717234479997,-0.010028869381777087,9.614663771946859,-0.00484871486670789,-0.007169032090347336,0.0011340271897411522
7.49,0.9952880628276588,0.21513174533924978,9.78838200143982,-0.0033624440003479227,0.005053107414766045,0.006236684742265403
7.5,0.9889392668442838,0.08488965458798008,9.685773804435623,-0.005010933291457888,0.003902713377278909,0.00676490320374531
7.51,1.0290199908160387,0.12280446098884759,9.7181239632854,0.00566742875762739,0.008127714709746707,-0.004199415137255009
7.5200000000000005,0.9031512091775885,-0.13895804799422332,9.610151770972912,0.0005575362925336242,-0.008668762543987662,0.005082399380865502
7.53,1.059890015407088,0.02662149749434709,10.001156971502603,0.00137739742756142,0.0019611304317314385,-0.0041300386956185705
7.54,1.1523270757510684,-0.007516753800664347,9.984209304981697,-0.0017555712510520776,-0.005258514876375314,-0.007075666663077841
7.55,0.9546463611416516,0.10356533420336839,9.82260542145368,0.0009630440302291452,0.003006657716695249,-0.0043782571267976895
7.5600000000000005,0.9873816216414434,-0.05170666663503731,9.798504962162328,0.002626030215309747,0.003022604211871598,-0.008557826123146131
7.57,0.9916611761562002,-0.10172445313507371,9.810338944367796,-0.005223402335919554,0.005887663026368603,0.006203189756228145
7.58,1.050857037281436,-0.19167693692793378,9.757976708238663,0.0035256535142054123,0.0009512131802895709,-0.00098950938092989
7.59,0.9514235537095342,0.04971605863261307,9.83763772972879,-0.002452415230058135,-0.005883322298625976,0.005705311739932797
7.6000000000000005,0.8596481895252225,-0.12017134813257226,9.921019464828738,-0.001112962600301517,-0.004022026627117214,-0.006674471005017889
7.61,0.9062875849427797,0.0538943061096538,9.861122818073808,0.0004632083797426957,0.0012873680584543086,-0.00566667050569737
7.62,0.9189978691883248,-0.042041424021544434,9.904260899346038,-0.00749719144466029,-0.0021857895371712437,0.0060077224161832156
7.63,0.9168515059103811,0.00953419456528852,9.7452083815875,0.005011391358409309,-0.0023827883526270424,0.0015618407422302095
7.640000000000001,0.9953679108910165,-0.14914476942065719,9.900496011829112,-0.0036996824391840604,0.003098641573836592,-0.0019632668720653236
7.65,0.9896280033063392,0.013031431038489923,9.804043021982533,0.005380394058035455,-0.00017925086130504006,-0.006642827840356709
7.66,0.9623572669832778,0.01968564688334519,9.850486728970777,-0.00870260176878987,-0.006136279856253646,0.0046824238183790215
7.67,0.8258331682138339,-0.11779172216967537,9.528943083091155,-0.006685051694225927,-0.0014566007826895325,0.007086783056626507
7.68,0.9683194683090925,0.07966294556323464,9.766355009186208,0.004723901692304301,-0.004549865133931095,-0.006719902393725561
7.69,0.9927322876402301,-0.06771639788833934,9.833066224652933,0.0047385581966144594,0.012629043876040863,-0.00176247064848303
7.7,1.0219675579466458,-0.0019583881283289795,9.791919332510657,-0.00530003258921224,0.005651417504799084,0.005212339471226164
7.71,0.8220372828846512,-0.008972478273018855,9.963149334407415,-0.003872739760616665,-0.0017331613866974755,0.0024103822293986897
7.72,1.114213418545035,-0.05787888051903865,9.944290071284126,-0.0002726014380061054,0.010348885814544764,-0.009007504742360008
7.73,0.8662805287884552,-0.0007120363517432646,9.851108513182,0.006512147599384437,-0.0008318751098417501,-0.0051407626249609815
7.74,1.0291146557836732,0.000654344833117133,9.859719948021887,0.004042062981279099,-0.0011835162528747816,0.004687318664019354
7.75,0.9743575402039445,-0.014557988651729066,9.868926389135154,0.0054445190327797564,-0.0013575988099083234,-0.007214441438566122
7.76,1.0720331761352797,-0.10499242538204412,9.836722691123473,0.008384286542888223,-0.0018840244072203607,-0.004835570609269931
7.7700000000000005,0.7854818088941645,-0.04332507793714578,9.880391742395595,-0.00483262965944508,0.002626293769180263,0.010036715939668038
7.78,0.8631855420451277,-0.06476543446312841,9.88814379790047,0.005822520874300126,-0.008012287879000187,0.0030839248233345447
7.79,0.99507365976487,-0.0394941928020962,9.783540475978228,0.0018818052696751525,0.0007377987099451871,-0.00796139391585307
7.8,0.9644791191180114,0.015109557541833477,9.779133879629716,0.002291433598502436,0.009497561083648728,-0.0011895383938717056
7.8100000000000005,0.9174211841442361,-0.0676581087539495,9.642409708455348,-0.001346262895401052,-0.0009455880403006796,-0.004605140985182259
7.82,0.8857130852893788,-0.009521187585720625,9.630310973324193,-0.006857934759067264,-0.0005559978562288285,-0.002105471200216269
7.83,0.9898495409718077,-0.0017557989720069812,9.759155758757894,-0.003999237385380489,-0.00026649805597096847,0.0006276117058939313
7.84,0.8015051656755574,-0.09498378178534363,9.644492370667981,0.0032376518366328457,0.003770165240391563,-0.011459516669075732
7.8500000000000005,1.1322003764272748,-0.024736681190037874,9.822033788933636,0.0013077503371925331,0.00479544208991334,0.0005159992773645381
7.86,1.0173987347861266,-0.08337793370485884,9.91562825058457,-0.0017957057095920742,0.006388543837536778,0.003301826889452505
7.87,0.9049539386153781,0.06912476054479985,9.653606590947003,0.003112084644482466,0.0032089734561557533,-0.0014410574129708842
7.88,0.9812431835412072,0.03283049923660389,9.805937334983366,0.002807623639754677,-0.0026871659812664943,0.002616554217286253
7.890000000000001,0.9326150466258818,-0.10094811731513204,9.815642252815287,0.011857108676762285,0.004327040569732996,0.0027085786877405088
7.9,0.8557058759574002,-0.08111309662365063,9.553078879250208,-0.008774468581577103,0.005152622639899788,-0.005744324837479621
7.91,0.9193751266122233,0.017592705250287125,9.705660276406553,-0.007846177579929541,0.009777586563792606,0.0012918549771428563
7.92,1.0119747959319292,0.04712943441976578,10.025560122573303,0.001617809366456381,0.0046397724396343735,0.010144094059380934
7.930000000000001,0.9446976222528082,-0.05930608786959989,9.75647808936432,-0.0016348234750566707,0.002279158057884576,0.0015347056695222585
7.94,0.8979447984289244,0.01231611278975649,9.808478294301711,0.0033697402004833478,-0.0011366890602158362,0.0005824380916604805
7.95,1.0252190422096874,-0.11464814840976864,9.803551147437428,0.005503563083632656,-0.003981399570125209,0.004569913864332663
7.96,0.8628179429111664,0.01658937167638101,9.816422183443,-0.002756350996330842,0.0023824644559170584,-0.0013299191664910026
7.97,0.8937242838764278,-0.021261153375218653,9.821681442273137,0.0047796478200570905,-0.0006370141475745387,0.0029676609609061073
7.98,0.9499111908205594,-0.17764388039635937,9.918050069281318,-0.0011208492388588096,-0.005500039587570251,0.00101142425492921
7.99,0.9722810735629032,0.04065955454213999,9.646804958957366,-0.00314559214036815,-0.00595459843010126,-0.00564589492909879
8.0,0.8458671821679409,-0.10633538171296163,9.727676446213236,-0.0032444304454112955,0.0031016698918007912,-0.001535996820604378
8.01,1.0041506743729094,0.09724591702732605,9.884451195074021,-0.004575143942510204,0.00014611720214840012,0.0029719743210125044
8.02,0.8511332104460161,-0.024294046378705043,9.634762852826432,0.0010625829587731855,0.0006503942402950362,0.0026164463557187866
8.03,0.8638047280575262,0.11189895272213775,9.792328024223082,-0.008048107951521336,-0.006216811967444247,0.0028260431847153033
8.040000000000001,0.8181201557843166,0.022658769233514117,9.770137146393363,-0.005164307531970045,-0.0029383313935991934,0.010467925601843871
8.05,0.8832131428621884,-0.003764450522231795,9.738109596333402,-0.0025352166217970894,0.0006511882116695382,0.004893171037107233
8.06,0.8465904292719001,-0.07553922908267291,9.787088116512125,-0.005590038619593323,-0.006768073746482779,0.002838112238467539
8.07,0.9248204224702135,-0.031766111698556816,9.884640078373996,0.007243333436623001,0.0006091328403595022,0.00018080113061946283
8.08,0.9070167426007562,0.04623784525356031,9.844027579994068,0.006700365828123439,0.0020924320432099104,-0.002321888360073226
8.09,0.9196057474269947,0.11834523233165266,9.800129997609774,0.0018168935737434473,-0.0023385758086506797,0.0015528906474345822
8.1,0.9552588742583923,0.0530154868931727,9.832767474509199,0.005535907304386906,0.002380812351225445,-0.007381257663666236
8.11,0.91797949911644,0.12639879913038818,9.996298248094297,0.0013930110737622851,-0.0017479407037257703,0.0010754055278966183
8.120000000000001,0.8392126113377747,-0.1698351933151275,9.962490338045688,0.004605439652631171,0.0012983701214393153,-0.003364155194842835
8.13,0.844070017685155,0.1146128138111812,9.663573567772016,0.00199169323338379,0.00012383688524368125,-0.007652922445444136
8.14,0.8472871343768483,-0.19962992620758283,9.74654623278681,0.0015309014447696038,0.0004609583507989237,0.005092192598083146
8.15,0.8013187980763377,-0.15873549129384942,9.684133443406619,-0.003581999896470448,0.004118316765793058,-0.003108330979751286
8.16,0.850043043268558,-0.0031469067368703864,9.977665739143442,0.0040358115656166475,-0.0025512860534270547,-0.0005486338827822715
8.17,0.922034541168814,-0.04548186106158216,9.775524062092837,-0.005746571928212299,0.0038211657160161683,-0.0008130200573828019
8.18,0.9228704237378051,-0.09880263152366522,9.730337764176776,-0.0014908212433341179,0.0044531795392554275,-0.0010146462006535466
8.19,0.9336347607972231,0.11039583083073934,9.616097108976529,-0.00264779008542557,0.000839949760248632,-0.008656903469675235
8.2,0.9925644322714325,-0.01072326289231352,9.825685237803288,-0.0008065208559568096,0.0011041982106169774,-0.0007529448949620685
8.21,0.8827358803747295,0.08570241454933135,9.99995111339295,-0.0009274399602748319,-0.006562397954085882,0.007777648915204937
8.22,0.8519702859313948,0.15110552391099477,9.955164633773625,0.00025445193472222393,-0.008680718385687677,-0.0027932452871422654
8.23,0.9931636398192636,-0.011601680265027456,9.627972880524133,0.005239053172530813,-0.00887161148319113,-0.0043480168291316745
8.24,0.8850032381732253,-0.018785795237338882,9.860916047619193,0.0016646014293680634,-0.0014849040435461955,-0.009778830591177711
8.25,1.047504641577515,0.09122005093034365,9.741134434083119,0.005806055121760193,-0.003386032007948893,0.0023340534378977667
8.26,0.850821887745696,0.10967424193568176,9.745842199178732,0.00011088010303505848,-0.0007719153168786913,-0.0011096981174268082
8.27,0.901688442338536,0.056802415355330996,10.011811457133383,-0.0005637361984159665,-0.0010220537546461951,0.005747405428513468
8.28,0.9225282993371304,-0.031066188993388866,9.684738150501989,0.00042642186839627233,0.0015811489630624146,0.009836659296326662
8.290000000000001,0.9400682647850689,0.04676029827123631,9.711525884888339,-0.0016835644525246213,-0.004515303231240708,0.0029759073111667897
8.3,0.9307418599197904,-0.010160405962406912,9.625892410403655,-0.010003497508803494,-0.009755747086871564,0.006997325900418357
8.31,1.0746077717702338,-0.022537352630792314,10.002210141817093,0.0021993916847908614,-0.0017273191433407448,-0.006433096575487553
8.32,0.8291261235168417,-0.05907240743385492,9.691292504931697,0.005099411559765379,-0.0030875686183441243,0.0035067973805591023
8.33,0.9111661028632719,0.0724185353882605,9.936251834398591,0.006305184122550706,-0.002953484275528445,-0.014065840885189768
8.34,0.9840217024679598,-0.05907061019863902,9.924687396286453,0.008499745388647208,0.0008868202788425564,-0.004509148553153513
8.35,0.9342157605281736,0.10008330041863467,9.771200728068942,-0.0007460455074991608,-0.005845337667226228,-0.007619954793698818
8.36,0.8758539949928339,-0.08948740383960402,9.9648463593172,0.006846048757306829,-0.0013617667266964365,0.0043984030022958176
8.370000000000001,0.8465576251487398,0.07029732017771602,9.77952501803286,-0.0035422851116798234,0.007410018246712506,-0.0008259355593189852
8.38,0.8416673046084403,0.013519830771071509,9.692919655424413,0.001122152124543085,-0.007200836321442782,0.00884761365398938
8.39,0.8978386355476464,-0.022254685419863023,9.470331080510121,-0.006026794077995167,-0.0007834472134337284,-0.009562769381814905
8.4,0.9134066537136347,0.07408034636258969,9.833236087856694,-0.00042916460191834503,0.007967503823778284,-0.0027670535071620166
8.41,0.782481412736684,0.06267158088635472,9.876851422760664,-0.0009521584079938742,0.002536768642091325,0.01118402360030156
8.42,0.7815894329635643,0.015247946624897486,9.566323756325337,-0.002076550544573971,0.005814372543866863,0.007697657097793437
8.43,0.8869981738959268,-0.008252539721254228,9.774412142816121,-0.001571308118971559,0.004502034669708709,-0.012366670312305112
8.44,0.9154877955260831,0.038501802276394374,9.751565745700505,9.811208792012792e-05,0.00017802316517960426,0.004215732839643479
8.45,0.9255472244229795,0.1289606917834868,9.844701191835833,0.0013316028088340571,-0.000876957422432254,0.0070117463979502805
8.46,1.0612738035002265,0.14105480251700803,9.839581352029949,0.0016723122549841315,0.0031038355491638187,0.0020137506662127437
8.47,0.9625981796818426,-0.0012057221704377646,10.046850059459704,0.010182825587233508,-0.007461451216804233,-0.002729183744330525
8.48,0.861933000035282,-0.05937499244507421,9.956048322490807,-0.0007133087137472413,-0.0010411377625369075,0.00791904830355538
8.49,0.8189543745523405,0.031814284356051645,9.54490008617213,-0.005092122414323712,-0.002039919301539439,0.005014135528395005
8.5,0.9577176858710146,0.06001895471457505,9.987123994632038,-0.004312455763764388,-0.010145568711094864,-0.004424778734773239
8.51,0.8592161932235647,0.05138008607464486,9.898477024798062,-0.005390394395301535,0.0008212301233463646,0.0011116672626917535
8.52,0.8251121702910321,0.15538266006186735,9.66732844507417,0.0008189926501554112,-0.0058837561642484295,0.00022574521106768583
8.53,0.935770798736794,0.07833196243804402,9.609085407612108,0.003791262219593575,0.002749624330268988,0.002663143942305928
8.540000000000001,0.9620150261877005,0.053819547520731516,9.962354231115478,-0.004081745851657927,0.010637415373167751,0.005971851544503625
8.55,0.8053081499591916,0.03654103372892388,9.749969133789387,0.005815942226878973,0.006059659828114286,0.002192047029578108
8.56,0.9791448222394071,-0.09719343307866263,9.760262281372809,0.0035704636206859053,-0.003379183290980704,-0.0070446472780798935
8.57,0.877111487812969,-0.025940778447734264,9.783741670763701,-0.0018167557609888565,0.004730465805117339,-0.0007682828151094964
8.58,0.7991047683874789,-0.04787730374787289,10.0418275010966,-0.0006840481829093083,-0.0026360702597497667,0.0015605115099285361
8.59,0.9154890253693315,-0.03890495953649993,9.784592682184304,-0.0008024320650296693,-0.004695020459747203,-0.0018365806182482967
8.6,0.9802713928198802,0.12743261740405662,9.707673875745563,0.0017938642241385244,-0.0007435638234040439,-0.005323339931120505
8.61,0.8986669074870139,-0.0613135632509436,9.863744015238359,0.0010238592861682321,-0.004622101692401609,0.00014418267910595736
8.620000000000001,0.82795311510016,0.11903798481913537,9.856609582877166,0.00030945689828297036,-0.001399757134365335,-0.006777972532127685
8.63,0.7722039984099348,0.041432067248389964,9.958961946362816,-0.004083326803977754,-0.002834217560073619,0.0031743394917207635
8.64,0.8111353513090788,-0.1788581238274601,9.998262176575262,-0.002783979028931326,0.002354634691673228,-0.0015186311067863017
8.65,0.8777976111963111,-0.053927558639769384,9.926648064683791,0.006071686480379795,0.004201465439681089,0.012422255391647055
8.66,1.0315461586514183,0.021355682661069932,9.63457700836218,-0.003638788245014938,-0.004389330904275825,0.005086383922346488
8.67,0.8772627381237879,-0.03802146698959145,9.838171717300382,0.003105753011026391,-0.002436498041420873,-0.0005578257889196279
8.68,0.9652966710869857,-0.06648442372809647,9.63714463570107,0.005519156990842575,0.00202022909443342,0.0028743479286377706
8.69,0.9239364590874991,-0.013283879977327457,9.614095130200917,-0.0050539730784294416,0.0010144552317204703,-0.004194376600169332
8.700000000000001,0.9927554638781221,-0.007355568980960993,9.931739339321268,-0.006777547938628927,-0.004822031924562153,-0.006709633507784442
8.71,1.0901923555342234,-0.028731830386451607,9.811611653037348,0.007142304611555832,0.00044983506489005393,-0.0006896510835783618
8.72,0.9646201275136657,-0.1470662252142146,9.790943505071168,-0.003703842088187394,0.0013058125887777164,-0.004019610719225978
8.73,0.9091460198782265,-0.12616477370366494,9.8623141279038,0.0033067563816982144,-0.0030911358757528006,-0.005462685153651537
8.74,0.9864675681320241,-0.055508353466765796,9.970326705255175,0.0017537063639093545,-0.012079077453651707,0.0022854225543517954
8.75,0.9682045945850325,0.0447150442402501,9.948238596991064,-0.0022927459458725228,-0.006603194884081848,-0.001156873374999894
8.76,0.90598553361027,0.06635861178927234,9.853369703059386,0.0010885482945069207,-0.0007244771800913917,-0.0012054430988641576
8.77,0.8817560617479229,0.09602721908576442,9.771081584047128,-0.007358707487257563,0.0061556210018895875,-0.011248729697451236
8.78,0.9273427246802308,0.08806389907607712,9.857273987096251,0.0009708912937042202,0.002879492840712524,0.006580014355574415
8.790000000000001,0.9357608949591492,0.07552041712547666,9.865851868958991,0.006298013119786569,0.005589350756228264,-0.001643323665458254
8.8,0.7589220920536693,0.0995405567880141,9.894938155026015,0.0014776412325942607,0.003553231957619811,0.001591644166906101
8.81,0.9507435001942268,-0.03732443697220529,9.80175701467674,0.002823058912571195,-0.0008848081071904335,0.004953823355590534
8.82,0.8871035881271397,0.014873542881991735,9.908063679322737,-0.00042335384700399674,-0.0008727539543865676,-0.009486995198275531
8.83,1.088947139976311,-0.03690355000619626,9.820701845201302,0.008223907670844407,-0.004098373773780965,0.0009018258450473132
8.84,0.86622890241203,0.05508668224166534,9.77916442222544,0.0007957752522924577,0.0009540486090456825,0.0009576725388272309
8.85,0.7798421663729919,0.07828180770562619,9.87418833252386,0.004922125548877105,0.0012237564007126463,0.0015085414382948487
8.86,0.8511529599222308,-0.05088051232655673,10.075878890407072,0.0031915690600525766,-0.0013016261758342907,-0.00346174909380539
8.870000000000001,0.9562208018966749,0.03330565026573935,9.802249174095417,-0.004965953561390803,0.005621991658128231,-0.0046165603127632975
8.88,0.8230222005491864,0.047043499286368265,9.977917810513356,0.0055542826119526975,0.006131536501729526,0.0007918849732536353
8.89,0.7351041684584597,0.02653567157744422,9.704884748755623,-0.006257395266491339,-0.0015029197406308634,-0.0029805272498319157
8.9,0.6690139508809745,0.042832980482899845,9.887697141788435,-7.173777049280597e-05,0.00014305342279072862,0.005772415156061299
8.91,0.942181289489373,0.11957509832455199,9.911387967869496,0.005120050836989846,-0.001347337311605851,0.007343858776826614
8.92,0.8007184205753184,-0.08363583135245697,9.745804650355092,-0.005631221854299702,0.0012878633899115668,-0.004828662049047212
8.93,0.8945648763525899,-0.07282773422847344,9.849151094620574,0.008445248795417982,-0.0018722822559304637,0.007155695599254567
8.94,0.8708529513100817,-0.08581005028192411,9.676169099356047,0.004839155567590536,1.4840732455800236e-05,0.0049078034628367425
8.950000000000001,0.9536061998979106,-0.02834684000773973,9.727587954764127,0.00338475889923859,-0.007367314991937771,-0.0031968702164203978
8.96,0.9003846582097359,0.010933083500138614,9.874725199793074,-0.004553758137982527,-0.008475080238158125,-0.0004171028647593262
8.97,0.9857839909626582,-0.04799366888671765,9.86883790819218,0.00613637188939777,-0.005369878309306304,0.0010374300745592052
8.98,0.8197951154468537,0.06664259614776395,9.773790743526813,-0.002228541154092862,-0.0028341163651838005,0.0015529794457142137
8.99,0.8410488053668411,-0.061624985536530445,9.783714344142096,-0.0008201163874187495,0.009377384731648524,0.006969427911590855
9.0,0.7831225131401974,-0.011779594933792301,10.062793148577866,0.005750020323671579,0.0013012016002485424,0.011260301791768717
9.01,0.8039920609439095,0.053000604169254076,9.887731728295442,-0.003126493717981216,-0.002592997356193977,0.00020547574418387218
9.02,0.8298071111715081,0.02786153290227828,9.730362689797404,0.0014220192504352765,-0.0008926375865554814,-0.00041622107841130787
9.03,0.9873776629763726,-0.06375440900838955,9.665348940090977,-0.0029941364020813037,-0.0002536770853299296,-0.0020460561921661602
9.040000000000001,0.8178417239275573,-0.04731553056940237,9.984218447929553,0.0017669512512990316,-0.0028818321153171096,-0.0016366000429230922
9.05,0.9031413453517838,-0.015440306085514688,9.761125389586402,-0.003201789231410015,0.005034070599567557,0.0018589816230443756
9.06,1.0291580581142115,-0.005798015219654644,9.892799227568073,0.0021844687757549964,0.004278923071351164,-0.0029978131111696033
9.07,0.7666902562427815,-0.00288135438567027,9.765806540700707,0.0026782322679228345,-0.003366169437157377,-0.003307868360199811
9.08,0.7366708828348989,0.11670261369436037,9.961518721931986,-0.001675054494423336,0.004342018397554882,-0.00024868804903944677
9.09,0.902346225086089,0.0007690874639748526,9.962042242350527,0.001754097312680542,-0.005338360830655574,-0.002870017921298066
9.1,0.8618224040507483,0.005668175588398439,9.89404134846473,-0.006594102389747228,0.0021731178438956535,0.0020632376523225084
9.11,0.8712098902545088,-0.09661692968600988,9.81077654692661,-0.008456261615681934,-0.006274308476825228,-0.0026047515303099507
9.120000000000001,0.8857676235996341,-0.19408728246436013,9.64713087352764,-0.009194902964448111,-0.0032683551323898627,-0.0006161945270929001
9.13,0.8019640796544661,0.033127624734565424,9.739919872366567,0.0010846107769506407,-0.004699697427049589,0.010382986124570741
9.14,0.9283562524708018,-0.04250433108286886,9.868611943345469,-0.002522671275612953,-0.0019599065893515307,-0.00041146936457265963
9.15,0.8828617687551853,0.038353691191414255,9.762838985045592,-0.0025176308842600444,-0.008780351661071143,-0.007686720550410753
9.16,0.9958143055068112,0.05862891503086289,9.977283473658996,0.0020777259889535804,0.004626189488840606,0.0016826886128265778
9.17,0.7297166642955597,0.03618219899887805,9.86940485563066,0.004587644938822278,-0.004745058336507634,0.006234960246431282
9.18,0.9294134926320762,0.03546082951694447,9.920576263372407,0.006757445931894698,0.008135376742156504,-0.004064968505473
9.19,0.907338438175966,0.054382185310957044,9.83438648571534,0.0012584235634148133,0.006158285334696885,-0.003987187769774679
9.200000000000001,0.7633902309839753,0.19693331305262082,9.682692054112668,0.004251901198415557,-0.0014254664932057896,-0.0035739999473949225
9.21,0.7657580522755869,-0.013814952940055561,9.789480587715769,0.004955430233420467,-0.011921003215210415,-0.007489805643406462
9.22,0.9813792505411015,-0.02520348146231635,9.68434042328696,-0.0014253501314568432,0.0007703133409969018,-0.006346802661933511
